time,ax,ay,az,vx,vy,vz,px,py,pz
1768828273.8183525,-0.707158088684082,0.4612455368041992,9.723608016967773,-0.00018596538825477182,0.00012129636456847948,0.0025570725542820583,-4.890437680363973e-08,3.189799550033399e-08,6.724479263718391e-07
1768828273.8185577,-0.7073850631713867,0.47104454040527344,9.73783588409424,-0.0003311762598059431,0.00021799163255309395,0.00455603989098563,-1.1688770841072329e-07,7.66469683044545e-08,1.6077044900683732e-06
1768828273.8187401,-0.7070512771606445,0.4516010284423828,9.718961715698242,-0.00046013549285817135,0.0003003592403274524,0.006328683388574063,-2.008119189678267e-07,1.314295541281099e-07,2.761994401400303e-06
1768828273.8190227,-0.7123556137084961,0.48552513122558594,9.747140884399414,-0.0006613944865421217,0.0004375327214347635,0.009082504272328151,-3.876730684105982e-07,2.5504393088768545e-07,5.328038150901736e-06
1768828273.8315449,-0.6978673934936523,0.48066139221191406,9.737815856933594,-0.009400243945492548,0.006456480714177815,0.13102158270771724,-0.00011809960155646478,8.110451980818394e-05,0.001646009201694299
1768828273.832118,-0.6834993362426758,0.4759531021118164,9.738072395324709,-0.009791997238608019,0.006729277168005865,0.1366030393780875,-0.0001237119656964064,8.496146062885075e-05,0.001724304362623245
1768828273.8323822,-0.6928043365478516,0.48508262634277344,9.713857650756836,-0.009975013826078793,0.006857420371261469,0.1391691276437541,-0.0001263470430106152,8.67729701835606e-05,0.0017610683629029767
1768828273.8326395,-0.7022161483764648,0.4658222198486328,9.709230422973633,-0.010155661491126011,0.006977254836101565,0.14166686257817673,-0.00012895962396538744,8.856789443515361e-05,0.0017975126799390936
1768828273.844792,-0.7121286392211914,0.4757251739501953,9.732913017272951,-0.018809757348208223,0.01275847332703961,0.25994543976366913,-0.0003575439473228554,0.000243614391768808,0.004956482323101339
1768828273.8451946,-0.7165002822875977,0.4656686782836914,9.704255104064943,-0.019098284116125797,0.012945992972163367,0.2638532363541799,-0.0003652346158752866,0.0002488276004751831,0.005062733113745558
1768828273.8606248,-0.7118558883666992,0.45635986328125,9.718829154968263,-0.030082371401931596,0.019987722420410137,0.4138168308099921,-0.0008294119846977685,0.0005572423952364888,0.01144801455094989
1768828273.8610342,-0.7025651931762695,0.47577571868896484,9.733036041259766,-0.030369976791689623,0.020182488204909532,0.4178011921922007,-0.0008418443811457443,0.0005655043934721508,0.011619047610783894
1768828273.861349,-0.7025041580200195,0.47569847106933594,9.728246688842773,-0.030591231138714647,0.020332309886953226,0.42086511266052185,-0.0008514791182402043,0.0005719080736442759,0.01175159947488925
1768828273.8752835,-0.6832103729248047,0.4660768508911133,9.719056129455568,-0.0401113398970665,0.026826798972706456,0.5562940742918272,-0.0014104055242146049,0.0009457227198787474,0.019503209079721383
1768828273.8755586,-0.6928949356079102,0.46618175506591797,9.728512763977053,-0.04030197957308701,0.02695506190866581,0.5589707290430397,-0.001421494010987939,0.0009531390019228244,0.01965700151377377
1768828273.8757765,-0.6929788589477539,0.4710426330566406,9.733230590820312,-0.04045298977098355,0.027057708966822247,0.5610917419119232,-0.0014303093073161687,0.000959035271243235,0.019779271585782736
1768828273.8907924,-0.7069149017333984,0.4609346389770508,9.704448699951172,-0.05106791120397247,0.03397903000063707,0.706812196025794,-0.0021971369181754173,0.001469258967110326,0.03039265080624471
1768828273.8917322,-0.7119007110595703,0.4659261703491211,9.718687057495117,-0.05173698826729378,0.0344169288662215,0.7159462655592961,-0.0022457617216588253,0.0015016055813735375,0.03106553006793741
1768828273.8926167,-0.7072935104370117,0.4899454116821289,9.723180770874023,-0.05236261266736619,0.03485030171600556,0.7245467391205693,-0.0022920781767836636,0.0015324318208083474,0.03170641551690279
1768828273.90211,-0.7072486877441406,0.4803791046142578,9.72332286834717,-0.05907677269215128,0.039410709160847546,0.8168536558275719,-0.0028529147148734346,0.0019065715153480439,0.0394610939731478
1768828273.9030917,-0.6927967071533203,0.4708099365234375,9.718861579895021,-0.059756800664217735,0.039872841736041664,0.8263933918897237,-0.002911570155283711,0.0019457094723075974,0.04027225634821885
1768828273.9039807,-0.6976318359375,0.4565906524658203,9.72859287261963,-0.060377039234481344,0.04027877953717507,0.8350427227017008,-0.0029652491397601293,0.0019815198401050022,0.04101466183741435
1768828273.9200914,-0.702580451965332,0.46628665924072266,9.737969398498537,-0.07169607306718717,0.04779096473521349,0.9919278235825004,-0.00412032009917772,0.002751463759299362,0.05699527240425459
1768828273.9213486,-0.692927360534668,0.4472036361694336,9.738377571105959,-0.07256720829536789,0.04835318072468908,1.0041707284678978,-0.004211550226832147,0.002812252467500123,0.05825769693314215
1768828273.9226003,-0.6927900314331055,0.45653820037841797,9.723864555358888,-0.07343437187364543,0.04892462846714807,1.0163420658138875,-0.004303467849478632,0.002873491304611722,0.05952984979700775
1768828273.933349,-0.7025957107543945,0.4567985534667969,9.742900848388672,-0.08098630955578301,0.05383458472829261,1.121064851512756,-0.005173959304962871,0.0034521390572080086,0.07157975526421985
1768828273.9342911,-0.7026863098144531,0.47593116760253906,9.742615699768068,-0.08164840183530941,0.054283021459241354,1.1302446384918312,-0.005250890896963151,0.003503286160710025,0.07264470592380955
1768828273.935192,-0.7023534774780273,0.45648860931396484,9.72374153137207,-0.08228121094771268,0.05469431030587657,1.1390055721883527,-0.005325024935929188,0.0035525648488179706,0.07367093150433489
1768828273.9491036,-0.7024812698364258,0.4709157943725586,9.728318214416506,-0.09205376906788842,0.06124544863200754,1.274340931640836,-0.006605629625370445,0.004404580029937176,0.09139890711609577
1768828273.9501066,-0.7027549743652344,0.45224761962890625,9.757342338562013,-0.09275865125505334,0.061699065188122404,1.2841278090866126,-0.006698669053564016,0.004466465855868351,0.09268692193162355
1768828273.9510095,-0.7072181701660156,0.4613227844238281,9.728398323059084,-0.09339719228842114,0.06211558945165052,1.2929114939242936,-0.006782996552762036,0.004522549472423899,0.09385428028893177
1768828273.9625008,-0.7119770050048828,0.4565153121948242,9.728408813476562,-0.10157873270304663,0.06736154325403731,1.4047035452376804,-0.007950268109335294,0.005296621085201154,0.1099961482778438
1768828273.9634469,-0.6976165771484375,0.4660797119140625,9.723660469055178,-0.10223870932327372,0.06780247559868258,1.4139025648464667,-0.008046990521109632,0.005360765272931841,0.11133376361934284
1768828273.9643354,-0.707240104675293,0.4661064147949219,9.72832775115967,-0.10286715301026561,0.06821665125403342,1.4225470211206357,-0.008138396837692612,0.005421381637225842,0.11259781904968758
1768828273.9738564,-0.7166757583618164,0.451629638671875,9.72362804412842,-0.10969062830781695,0.07251662044814111,1.5151257570239522,-0.00918276213664194,0.006111812927131406,0.12702334280309088
1768828273.9748306,-0.7024364471435547,0.4613485336303711,9.728460311889648,-0.11037492666173421,0.07296605618489593,1.524603012090438,-0.009290286996628209,0.0061828948767400855,0.1285085779952471
1768828273.9928622,-0.6929559707641602,0.4662590026855469,9.733302116394045,-0.12287002956054494,0.08137345068303148,1.7001099946703562,-0.011505829869930671,0.00765018815714076,0.1591642765084972
1768828273.9939053,-0.707362174987793,0.4662609100341797,9.737907409667969,-0.1236078658059796,0.08185979871154814,1.710267423630512,-0.011634762921254838,0.007735574581053529,0.16094822444798454
1768828273.9948258,-0.7027244567871094,0.4712257385253906,9.747477531433107,-0.12425474765518629,0.08229357808863824,1.719240309417728,-0.011749143657771952,0.007811328628685802,0.16253084383719948
1768828273.9957285,-0.6977672576904297,0.48529052734375,9.72816562652588,-0.12488458918255674,0.08273162691307334,1.7280214647803405,-0.01186187107444112,0.007886006558443135,0.16409064714798915
1768828274.0042465,-0.683415412902832,0.47109317779541016,9.73335361480713,-0.13070590839470242,0.0867443894508142,1.8109299818063391,-0.01297522146325832,0.008624893582824113,0.17951611355671754
1768828274.0053544,-0.702580451965332,0.46628665924072266,9.737969398498537,-0.13148431915374204,0.08726100295939432,1.8217189813149162,-0.013120897034487166,0.00872157276505609,0.18153445273913504
1768828274.0186899,-0.7072629928588867,0.4708900451660156,9.728256225585938,-0.14091600102028679,0.09354054132768397,1.9514498151947919,-0.015000077629186,0.009968979509555618,0.2075579461514605
1768828274.0196671,-0.7025041580200195,0.47569847106933594,9.728246688842773,-0.14160254270723271,0.09400543086189828,1.960957014286123,-0.015138462644329621,0.010060848926055452,0.20947434582147936
1768828274.0206091,-0.6929178237915039,0.4709653854370117,9.72844123840332,-0.14225526561949664,0.09444907639590383,1.970121126218146,-0.015272465938907846,0.010149819182107521,0.211330183779264
1768828274.0337198,-0.6976995468139648,0.47094058990478516,9.728379249572756,-0.15140255157666616,0.10062340783179025,2.097666381625004,-0.017257449934154942,0.011469056222787011,0.23883192765037084
1768828274.0347729,-0.702519416809082,0.46620941162109375,9.733179092407227,-0.15214237116629192,0.10111437056866635,2.107916342536555,-0.017417670283810454,0.011575539247098506,0.24105176352420926
1768828274.0356872,-0.6975555419921875,0.4660015106201172,9.718871116638185,-0.1527801707877643,0.10154045217677776,2.116802648997009,-0.017557362579593276,0.011668381261911439,0.2429872308052894
1768828274.0481465,-0.6975784301757812,0.47078514099121094,9.718799591064453,-0.1614714944505522,0.10740609517688426,2.2378918759652606,-0.019569180835255467,0.013006583672073796,0.27086974806064157
1768828274.0491374,-0.687932014465332,0.4659748077392578,9.714203834533693,-0.16215314400483294,0.10786781452316063,2.2475173659479424,-0.019729853134279118,0.013113466396158235,0.2730967402321388
1768828274.0500607,-0.7215404510498047,0.4564647674560547,9.728285789489748,-0.16281941096281116,0.10828931187870694,2.2565004179305106,-0.01988019978980503,0.013213460222286774,0.2751803817895092
1768828274.0642166,-0.6928806304931641,0.47567081451416016,9.723579406738281,-0.17262773543211551,0.11502284357811732,2.39414609256346,-0.022323894658738335,0.014841708035179483,0.3090715899851629
1768828274.06524,-0.6880760192871094,0.4709138870239258,9.723711967468263,-0.1733318384906397,0.11550472624639951,2.4040962944955027,-0.022501263836270966,0.014959903160055875,0.3115316837923773
1768828274.066184,-0.6978588104248047,0.46638965606689453,9.74281978607178,-0.17399071321437987,0.11594506224446377,2.4132948567248604,-0.02266553500601187,0.015069371249752777,0.31381016614192336
1768828274.0671153,-0.6929407119750977,0.47574806213378906,9.728369712829592,-0.1746360232398274,0.11638810879776429,2.422354527196603,-0.022828167067678064,0.015177759185621056,0.31606601521324246
1768828274.0774643,-0.6978139877319336,0.45682334899902344,9.742961883544922,-0.18185772480592277,0.12111578974554504,2.523184783296074,-0.024710219074554698,0.016431190764611248,0.3421785435107938
1768828274.0784547,-0.7023000717163086,0.47068309783935547,9.713948249816896,-0.18255327632004992,0.12158194994481164,2.5328053880566586,-0.02489101815584053,0.016551604406557743,0.34468701060855
1768828274.0931733,-0.6879549026489258,0.47075843811035156,9.714132308959961,-0.1926789629560517,0.12851082334509556,2.6757831607601474,-0.027726969746170865,0.018443095144564842,0.38407061218973415
1768828274.094141,-0.7025880813598633,0.4805593490600586,9.732964515686037,-0.19335888625732878,0.12897588033615648,2.685202149695897,-0.027914091070547566,0.01856791039359888,0.38666919243704473
1768828274.0950882,-0.6928348541259766,0.46610450744628906,9.723722457885742,-0.19401516507628003,0.12941739177836098,2.6944128195293615,-0.028097869416334628,0.0186904993374464,0.3892214399927751
1768828274.1076393,-0.6928806304931641,0.47567081451416016,9.723579406738281,-0.20271155785826522,0.13538756911611927,2.8164541381149775,-0.030642116218743957,0.020389758094317593,0.42457095094686587
1768828274.1086485,-0.7072257995605469,0.47559547424316406,9.723394393920898,-0.2034253084136708,0.13586755236065073,2.8262672390417265,-0.030847418297590665,0.02052687913970263,0.42742329289033576
1768828274.1096005,-0.7071495056152344,0.48500728607177734,9.713672637939453,-0.20409851855197303,0.1363292819094113,2.83551470771431,-0.031041721186598717,0.020656665350397962,0.4301227181651616
1768828274.1223576,-0.7022457122802734,0.4848775863647461,9.704154968261719,-0.2130571112832058,0.14251489578327892,2.959311223152099,-0.03375970415908485,0.022474736841800565,0.46787483761506304
1768828274.1233532,-0.7073469161987305,0.4757499694824219,9.732974052429201,-0.2137613713277915,0.14298856957339012,2.9690017223726954,-0.03397253267286565,0.022617101407301415,0.4708308825733275
1768828274.1243033,-0.6927738189697266,0.46602630615234375,9.71893310546875,-0.21441957437377823,0.14343134025239124,2.9782356616449306,-0.03417625228972688,0.022753375242222724,0.47366049843132324
1768828274.133769,-0.7072257995605469,0.47559547424316406,9.723394393920898,-0.22111395768365583,0.14793318168267433,3.0702743417757574,-0.03626924944681337,0.024153665535717316,0.5027227771591363
1768828274.135095,-0.6979570388793945,0.49979400634765625,9.737531661987305,-0.2220393410352699,0.14859583142606425,3.08318480643743,-0.036563639356437735,0.024350680682583243,0.5068106045337373
1768828274.1360347,-0.7025651931762695,0.47577571868896484,9.733036041259766,-0.22269964414908827,0.14904298735064003,3.092332361806484,-0.03677294273483751,0.024490758143858395,0.5097169208546909
1768828274.152057,-0.6975784301757812,0.47078514099121094,9.718799591064453,-0.23387638900703678,0.1565860035566402,3.2480489646370643,-0.04052015826667567,0.026999611248214525,0.5617578283620008
1768828274.1530743,-0.6930084228515625,0.4900979995727539,9.728156089782717,-0.23458140870525312,0.15708459597249202,3.2579457298775196,-0.04075880545842556,0.027159418446504068,0.5650722410582163
1768828274.1540115,-0.7168035507202148,0.46605682373046875,9.728204727172852,-0.23525321379088382,0.15752139534947673,3.267063231322936,-0.04097929028341964,0.027307051189652584,0.5681342092804363
1768828274.163142,-0.7025489807128906,0.48526573181152344,9.72810459136963,-0.24166782173665524,0.1619521033919682,3.3558854753546257,-0.04318583299020173,0.028785751291385508,0.5987750474657898
1768828274.164135,-0.6976995468139648,0.47094058990478516,9.728379249572756,-0.24236064672322755,0.16241975369985084,3.365545886134214,-0.04342650035565789,0.028947036280303783,0.6021170795683148
1768828274.1652603,-0.6835222244262695,0.48073673248291016,9.738000869750977,-0.24312983867957882,0.16296074390402282,3.3765044060949094,-0.04370010304124473,0.029130421822035374,0.6059167804952786
1768828274.176548,-0.6977672576904297,0.48529052734375,9.72816562652588,-0.2510060186245937,0.1684385525527432,3.4863129162606583,-0.04653338096906368,0.03103170385406192,0.6452691971792969
1768828274.177551,-0.7074308395385742,0.48061084747314453,9.73769283294678,-0.25171559083059947,0.16892061819112314,3.4960800847225073,-0.046785858493493086,0.031201135788592668,0.6487758597665646
1768828274.193862,-0.6882352828979492,0.46636199951171875,9.738153457641602,-0.26294134852696516,0.1765274162373771,3.6549184265541044,-0.051074676489703014,0.03408046216241957,0.708390979299113
1768828274.1949465,-0.7073698043823242,0.4805335998535156,9.732902526855469,-0.26370853784851533,0.17704858669753776,3.6654744028483037,-0.051360685834441235,0.034272483060496364,0.7123664286367283
1768828274.1958354,-0.711848258972168,0.4801216125488281,9.708892822265625,-0.2643412459949559,0.17747533053193365,3.6741039042963166,-0.05159563880043254,0.03443022747583275,0.7156320620660688
1768828274.1967785,-0.7121353149414062,0.48999786376953125,9.727910041809084,-0.2650129205578651,0.1779374886275491,3.6832791124179494,-0.051845594720110015,0.034598055250121544,0.719106071620151
1768828274.2060494,-0.7022008895874023,0.4753103256225586,9.704297065734865,-0.27152295931318804,0.1823440461903374,3.773246742661513,-0.05436285867448559,0.03628854984376837,0.7540874891779611
1768828274.207025,-0.7024669647216797,0.4804048538208008,9.723384857177734,-0.2722082922837217,0.1828127334056262,3.782732962743694,-0.05462842748686185,0.03646690355992624,0.7577779568416181
1768828274.2228413,-0.6927595138549805,0.47551536560058594,9.713999748229982,-0.28316512341234557,0.19033358509477694,3.936371639219715,-0.05910702702493257,0.03947725983548884,0.820036444019123
1768828274.2238128,-0.7023601531982422,0.4707603454589844,9.718738555908203,-0.2838475054295486,0.19079095499637333,3.9458139351561385,-0.05938280068955617,0.039662623877201174,0.8238700220777857
1768828274.2247481,-0.7073850631713867,0.47104454040527344,9.73783588409424,-0.2845091340579984,0.19123153053214992,3.9549218896995626,-0.059648906659202035,0.039841485803823,0.8275691241393652
1768828274.2256894,-0.6929950714111328,0.46155261993408203,9.738162994384766,-0.2851614340681863,0.19166597919002015,3.9640881941691077,-0.05991732243013833,0.040021896495523505,0.8313004273998298
1768828274.2354095,-0.7025270462036133,0.4804821014404297,9.728175163269045,-0.2919900581132424,0.1963363070426567,4.0586469036072685,-0.06275549121313993,0.04193030249132688,0.8707508286137534
1768828274.2363825,-0.7073917388916016,0.4853172302246094,9.732831954956055,-0.2926783405282549,0.19680851402063126,4.0681168149938,-0.06304026320575082,0.04212179446370613,0.8747090502214361
1768828274.2499921,-0.7072257995605469,0.47559547424316406,9.723394393920898,-0.3023034345405904,0.20328120089698132,4.200448787637697,-0.06715450646372176,0.04488838000228473,0.931875678616689
1768828274.2509665,-0.7071647644042969,0.47551727294921875,9.718605041503906,-0.3029925077198641,0.2037445528844728,4.209918759009497,-0.06744974743315342,0.04508691210382979,0.9359778938991463
1768828274.2519066,-0.7025270462036133,0.4804821014404297,9.728175163269045,-0.30365294247690144,0.20419624664009461,4.219064065279326,-0.06773520684481896,0.045278873821555043,0.9399441704516796
1768828274.2645686,-0.7024211883544922,0.4708385467529297,9.723527908325195,-0.3125469531330509,0.21015797319614649,4.3421827329189,-0.0716926557057003,0.047939880186496864,0.9949246011929556
1768828274.2656105,-0.6977224349975586,0.4757232666015625,9.728307723999023,-0.3132739025961655,0.2106536241253707,4.352318551580083,-0.07201905239853545,0.048159357920449355,0.999459234846216
1768828274.2665348,-0.7167587280273438,0.45649051666259766,9.728346824645998,-0.3139364376886533,0.21107558060089104,4.361310937596727,-0.07230923917777676,0.048354465386667746,1.003490607513782
1768828274.2808092,-0.7120218276977539,0.4660816192626953,9.72826671600342,-0.32410009269460716,0.2177285968407432,4.500175706710706,-0.07693556017161002,0.05146240148797374,1.0677277299866588
1768828274.281842,-0.7025728225708008,0.4520149230957031,9.742972373962404,-0.3248257304803701,0.21819545109042338,4.510238533898246,-0.07727104969846381,0.05168776013964127,1.0723860364253068
1768828274.2827973,-0.693145751953125,0.48076438903808594,9.742667198181154,-0.32548792259331094,0.21865474610262936,4.519546125208535,-0.07758200238711761,0.05189665047463683,1.076703754293089
1768828274.2930868,-0.6976766586303711,0.4661569595336914,9.728450775146484,-0.33266661816628584,0.2234512357949825,4.619646344482817,-0.0810049524737595,0.0541958364619196,1.124237284835664
1768828274.2944732,-0.6931838989257812,0.4760580062866211,9.747529029846193,-0.3336276511224696,0.22411124453697084,4.633160358085206,-0.08146749519628918,0.05450654519618933,1.1306607170623852
1768828274.2955391,-0.697601318359375,0.4755678176879883,9.718728065490724,-0.3343712728280934,0.22461818531019162,4.64352022546268,-0.08182392476382039,0.05474598132349957,1.1356105678428827
1768828274.3089387,-0.7168722152709961,0.4804067611694336,9.727990150451662,-0.3439770744682846,0.23105544421923696,4.773871411842038,-0.0864330803088802,0.057842032080909996,1.1995785399041226
1768828274.3099384,-0.7024812698364258,0.4709157943725586,9.728318214416506,-0.34467933733822065,0.23152621360691228,4.783596705543459,-0.08677765248616137,0.05807348631352017,1.2043606493998442
1768828274.3108366,-0.6928949356079102,0.46618175506591797,9.728512763977053,-0.34530164206921654,0.23194490206424234,4.792334104545034,-0.08708777575945648,0.05828180131550286,1.2086647538643325
1768828274.3227742,-0.6930627822875977,0.4759025573730469,9.73794937133789,-0.35357516099134045,0.2376260451210328,4.908582026732574,-0.09130862105603879,0.06111849032974935,1.26726153227584
1768828274.323783,-0.6880912780761719,0.4614238739013672,9.728644371032717,-0.3542692723856362,0.23809150599618079,4.918395787092777,-0.091665989833186,0.061358664900278775,1.2722229591479002
1768828274.324737,-0.707097053527832,0.4611673355102539,9.718818664550781,-0.3549439498549418,0.23853152934134414,4.927669009132842,-0.09200466001239081,0.06158626003416131,1.276924700217348
1768828274.3349607,-0.7025585174560547,0.4615030288696289,9.738039970397951,-0.3621266461466348,0.2432497642096223,5.027227098382127,-0.09570690780211083,0.06407315491328137,1.3283211953702325
1768828274.3359826,-0.6928195953369141,0.47559261322021484,9.718790054321289,-0.36283461218476987,0.24373575424283445,5.0371583609164645,-0.09607767471548286,0.06432221922590269,1.3334684762384976
1768828274.3528469,-0.7024211883544922,0.4708385467529297,9.723527908325195,-0.3746804536729087,0.25167611664051037,5.201138850424968,-0.10239639820574477,0.0685665607029272,1.4211820409791458
1768828274.3538363,-0.6974277496337891,0.45157432556152344,9.71429443359375,-0.3753705145652475,0.25212292103310574,5.210750533769669,-0.10276780372032973,0.06881602047558254,1.4263377508931492
1768828274.354809,-0.7023372650146484,0.4659767150878906,9.718810081481935,-0.376053711596569,0.25257619885883287,5.220204484921624,-0.1031336091419954,0.06906171341804547,1.4314156933356807
1768828274.3557158,-0.7072629928588867,0.4708900451660156,9.728256225585938,-0.37669499109415483,0.2530031576204692,5.229025151813175,-0.1034751606964681,0.06929111286272822,1.4361568810636913
1768828274.3640597,-0.6975946426391602,0.46129608154296875,9.723731040954592,-0.38251567545762555,0.25685218214653105,5.310159331701016,-0.10666684663387048,0.07143427077845921,1.4804645054351104
1768828274.3650594,-0.6975946426391602,0.46129608154296875,9.723731040954592,-0.3832130532196061,0.2573133348121246,5.319880039655118,-0.10704994054698451,0.07169150411511464,1.4857827315356205
1768828274.3822196,-0.6928195953369141,0.47559261322021484,9.718790054321289,-0.3951019602645829,0.2654745883446594,5.486656199456547,-0.11382996020937507,0.07624709510139195,1.5799347243229542
1768828274.3832386,-0.7026634216308594,0.4711484909057617,9.742687225341797,-0.39581797499886306,0.26595468913137665,5.496584007550837,-0.11423329912451931,0.07651810319745449,1.5855357489621489
1768828274.3841777,-0.697662353515625,0.4756460189819336,9.723517417907717,-0.39647317119124637,0.26640138294965254,5.505715662077819,-0.11460563928425077,0.07676828893683788,1.5907063360232976
1768828274.3850908,-0.6976165771484375,0.4660797119140625,9.723660469055178,-0.3971101949955482,0.26682698044965036,5.514594756105453,-0.11496825774176671,0.07701194016839433,1.5957419504937518
1768828274.393224,-0.7073764801025391,0.49480628967285156,9.727899551391602,-0.4028634102764954,0.2708513255995513,5.593713445975482,-0.11824481554844025,0.07921482085376608,1.6412365896001593
1768828274.3942254,-0.6787481307983398,0.457000732421875,9.747998237609865,-0.4035430801691291,0.27130894695369534,5.603474682308843,-0.11864890665311706,0.0794864982470131,1.6468476739816673
1768828274.4081235,-0.6879472732543945,0.4564857482910156,9.719136238098146,-0.41310426371705944,0.27765324715824136,5.7385525423608215,-0.12439028516188956,0.08334536034584888,1.7266028475103004
1768828274.409163,-0.6975412368774414,0.4754905700683594,9.713937759399414,-0.4138293613239057,0.278147521985602,5.748650229278837,-0.12482046285415321,0.08363449608704868,1.7325785981949564
1768828274.410086,-0.7026491165161133,0.4806365966796875,9.737754821777344,-0.41447784906586094,0.278591110305797,5.7576373815966235,-0.12520299205416685,0.08389161292645606,1.737892427212634
1768828274.424114,-0.7072324752807617,0.4898672103881836,9.718391418457031,-0.4243989574024454,0.2854630029785312,5.893967679610114,-0.13115649133691915,0.08789610858753613,1.8205734322930716
1768828274.4251287,-0.7072563171386719,0.4566173553466797,9.733259201049805,-0.42511661708704196,0.28592633693438074,5.903844109921238,-0.13158786119526095,0.08818624075010535,1.8265641188364945
1768828274.4260852,-0.7074909210205078,0.48068904876708984,9.742482185363771,-0.4257933571552712,0.28638613299676763,5.913163138424579,-0.13199514758864278,0.08846017920701811,1.8322202683457718
1768828274.4269927,-0.7022771835327148,0.4658994674682617,9.714019775390625,-0.42643061829812723,0.2868089000096461,5.921977845051742,-0.13238209973451553,0.08872043565801373,1.8375939960675265
1768828274.4375696,-0.6928424835205078,0.4803762435913086,9.71871852874756,-0.4337587879053899,0.2918898219681978,6.024772375465091,-0.1369699505693255,0.09180774362900848,1.901317793124859
1768828274.438642,-0.6974954605102539,0.4659242630004883,9.714080810546875,-0.43450678675844756,0.2923894823015871,6.03518982147898,-0.1374359185885343,0.09212130408895429,1.907789971540399
1768828274.452249,-0.7025117874145508,0.4899711608886719,9.723242759704592,-0.44406588231549904,0.2990565322088514,6.167494230215652,-0.14347833421589706,0.09619057384294055,1.9917112206217407
1768828274.453417,-0.6975860595703125,0.4850578308105469,9.713795661926271,-0.4448806716359286,0.2996230858761919,6.17884006612735,-0.14399796045432528,0.09654053738819322,1.998928183789875
1768828274.4547095,-0.6928577423095703,0.4708881378173828,9.723650932312013,-0.44577616748483706,0.300231693310252,6.19140756521756,-0.14457411149247973,0.09692857697937089,2.0069303744777804
1768828274.467079,-0.7024812698364258,0.4709157943725586,9.728318214416506,-0.4544654353014721,0.3060566364540591,6.311740969110588,-0.15019557365852101,0.1007143121945277,2.085002787259121
1768828274.4680848,-0.7072629928588867,0.4708900451660156,9.728256225585938,-0.4551768626483863,0.3065302990928558,6.321526505165139,-0.1506534305958135,0.10102264733949401,2.0913615348189762
1768828274.469006,-0.7073087692260742,0.4804563522338867,9.728113174438477,-0.4558284704203288,0.30697291921410397,6.330488523489521,-0.1510733622959726,0.1013054459539586,2.0971934935074175
1768828274.482385,-0.6930017471313477,0.47582530975341797,9.733159065246584,-0.46510004278138695,0.3133389187355533,6.460707082026602,-0.1572958699875175,0.10549756303103398,2.183630379796042
1768828274.4834266,-0.6976242065429688,0.48035144805908203,9.718656539916992,-0.4658267235747644,0.31383927719230087,6.47083052811513,-0.1577810987537915,0.10582447395643499,2.1903707254117473
1768828274.4843721,-0.6977453231811523,0.48050689697265625,9.728236198425295,-0.4664864892836249,0.3142936291785645,6.480029237784947,-0.15822219349000968,0.10612165998141605,2.1964980342470284
1768828274.4933696,-0.6977672576904297,0.48529052734375,9.72816562652588,-0.47276460855459845,0.31866000174500186,6.567557827609107,-0.16247586484946133,0.10898878433526663,2.2555892439681915
1768828274.4943614,-0.693206787109375,0.48084163665771484,9.747457504272461,-0.47345214580377615,0.31913691071690664,6.577225563476077,-0.16294544476702183,0.1093053111174413,2.262112676305013
1768828274.495281,-0.7074985504150391,0.4949607849121094,9.737479209899904,-0.4741027476459294,0.3195920669829775,6.586179959083211,-0.1633814203895972,0.10959920173728033,2.2681691986987604
1768828274.5121644,-0.7121124267578125,0.4852151870727539,9.727981567382812,-0.48612560755032064,0.3277841360979892,6.7504211029565795,-0.17158886047335564,0.11513330365589257,2.3821390778455194
1768828274.5132158,-0.6784286499023438,0.46610164642333984,9.719117164611818,-0.4868389250270866,0.3282742074568432,6.760640034797461,-0.17210073554473088,0.11547845967102277,2.3892473901074482
1768828274.5141637,-0.7119998931884766,0.46129798889160156,9.728337287902834,-0.4875138669424359,0.3287114959327937,6.769862034217795,-0.172562875421803,0.11579006247993429,2.39566489619381
1768828274.5234404,-0.7168645858764648,0.46613407135009766,9.732994079589844,-0.49416395338630537,0.3330356485412267,6.860151404431008,-0.17714705083262391,0.11887951046679708,2.4593039721871106
1768828274.524516,-0.7118701934814453,0.4849052429199219,9.708822250366211,-0.4949297439234215,0.3335572827518263,6.870595617819845,-0.17767946884633548,0.11923833292214991,2.4666949785203673
1768828274.5254302,-0.7074308395385742,0.48061084747314453,9.73769283294678,-0.4955764042128976,0.33399660760505867,6.879496811992112,-0.17813247366757692,0.11954363816315243,2.472983504763858
1768828274.541224,-0.6928424835205078,0.4803762435913086,9.71871852874756,-0.5065190200743928,0.34158357409114615,7.03299231213191,-0.18613233394613757,0.1249385409365551,2.5840611812329137
1768828274.5422142,-0.6881589889526367,0.47577381134033203,9.728430747985842,-0.5072004023206773,0.3420546626527994,7.042624940786482,-0.18663453962098558,0.1252772271676907,2.591034452931648
1768828274.5431664,-0.6929855346679688,0.48531532287597656,9.728227615356445,-0.5078602935029721,0.3425168011624464,7.05188858526617,-0.18711814643924454,0.12560338666968265,2.5977495701500355
1768828274.5535429,-0.7073469161987305,0.4757499694824219,9.732974052429201,-0.5152000458163002,0.3474533985506696,7.152882336961284,-0.19246409570615916,0.12920872066829656,2.6719711203927523
1768828274.5545619,-0.6928644180297852,0.48515987396240234,9.718647956848146,-0.5159060753560425,0.3479477769508321,7.162785649016769,-0.1929898045165057,0.12956327980342072,2.679270006182599
1768828274.5554848,-0.6835441589355469,0.4855203628540039,9.737930297851562,-0.5165369307826495,0.3483958725882985,7.1717729632846385,-0.19346652591272773,0.12988482073674107,2.685888966835159
1768828274.5662272,-0.7120304107666016,0.48035430908203125,9.72326183319092,-0.5241858647220852,0.3535560431682825,7.27622438321464,-0.19909755373207105,0.1336828703385423,2.764053268238801
1768828274.567222,-0.7025651931762695,0.47577571868896484,9.733036041259766,-0.5248848613973678,0.3540294022939179,7.2859079825436766,-0.1996197725618486,0.13403510153012319,2.7713021691318107
1768828274.5825126,-0.7024974822998047,0.46142578125,9.73324966430664,-0.5356263982607743,0.3610848326177347,7.434734224208796,-0.20780976732609513,0.1395562687059581,2.884982963371137
1768828274.5838153,-0.6972522735595703,0.46561431884765625,9.694921493530273,-0.5365347221263619,0.3616913972916791,7.447363983768582,-0.20850872136512005,0.14002745100337902,2.894684786798173
1768828274.5847483,-0.6831350326538086,0.47548866271972656,9.709333419799805,-0.5371720405903488,0.3621349958332303,7.456422130643887,-0.209009866297588,0.14036529829310704,2.9016411208638986
1768828274.5856564,-0.6928195953369141,0.47559261322021484,9.718790054321289,-0.5378012152611973,0.36256689878155157,7.465248117343208,-0.20949826313981257,0.14069455847965026,2.9084205841738924
1768828274.5956526,-0.7025270462036133,0.4804821014404297,9.728175163269045,-0.5448237990954112,0.3673698823199629,7.5624926661575955,-0.2149444175970654,0.14436685239445213,2.984016590093823
1768828274.5966613,-0.6881523132324219,0.4615011215209961,9.733433723449709,-0.5455179720588603,0.3678354211185706,7.572311257772299,-0.21549470831032344,0.14473790601067849,2.9916551515647214
1768828274.6108634,-0.6975717544555664,0.4565134048461914,9.72380256652832,-0.5554249683732451,0.37431887832622124,7.710409848452173,-0.22338291920682915,0.15005402686032038,3.1011593014433663
1768828274.6119404,-0.6928730010986328,0.4613981246948242,9.728583335876467,-0.5561711487516732,0.37481577491007556,7.720886917097687,-0.2239818803405265,0.15045767973223162,3.1094742080892677
1768828274.612832,-0.7024669647216797,0.4804048538208008,9.723384857177734,-0.5567975283483975,0.3752441449455546,7.729557118248067,-0.22447836861510626,0.15079227948992596,3.1163665419835795
1768828274.624268,-0.6976766586303711,0.4661569595336914,9.728450775146484,-0.5647761485456613,0.38057510920589266,7.8408115408842605,-0.23093714049743552,0.15514453094527347,3.206033949584472
1768828274.6252577,-0.721653938293457,0.4803810119628906,9.727929115295412,-0.5654903517836374,0.38105053053459415,7.850439034207966,-0.23149679245643848,0.15552164732793175,3.213803336932408
1768828274.6261966,-0.7075519561767578,0.48076629638671875,9.747272491455078,-0.5661546669127802,0.3815019183393815,7.859590673924913,-0.23202835075033004,0.15587983656610344,3.2211826466042672
1768828274.6396196,-0.6928806304931641,0.47567081451416016,9.723579406738281,-0.5754551800603167,0.3878868315114232,7.990109949733096,-0.23975266606877044,0.16108642831865477,3.3284336208231062
1768828274.64067,-0.712249755859375,0.47588062286376953,9.74249267578125,-0.5762033786706979,0.3883867309045854,8.000344168027596,-0.24035795173390656,0.16149441780543627,3.3368377604382435
1768828274.6415887,-0.6978673934936523,0.48066139221191406,9.737815856933594,-0.5768444583509336,0.38882827933412045,8.009289586503883,-0.2408878565042871,0.16185160587770628,3.3441953083834566
1768828274.6529963,-0.7023153305053711,0.4611930847167969,9.71888065338135,-0.584856200375043,0.39408939191071113,8.120158823121528,-0.24755967013995697,0.16634722544527977,3.4368269438609746
1768828274.6539686,-0.702519416809082,0.46620941162109375,9.733179092407227,-0.58553923960676,0.39454267378550867,8.129622110555829,-0.24812897294183217,0.16673082783168222,3.444731139400174
1768828274.6548634,-0.7024059295654297,0.48032665252685547,9.718595504760742,-0.5861677418454292,0.3949724628344029,8.138318163328677,-0.24865346700214488,0.16708424323815194,3.452013183826847
1768828274.669539,-0.6927738189697266,0.46602630615234375,9.71893310546875,-0.5963346252312931,0.40181168651702137,8.280949505352055,-0.2574050456958893,0.17298107774320182,3.573541228969126
1768828274.6706095,-0.6929178237915039,0.4709653854370117,9.72844123840332,-0.5970763933598846,0.40231585468904996,8.291363796056885,-0.2580442156287759,0.17341175663237005,3.5824171291051905
1768828274.671531,-0.6928730010986328,0.4613981246948242,9.728583335876467,-0.597714867383047,0.4027410274356953,8.30032856699222,-0.2585950025918657,0.17378287757902508,3.5900657806839567
1768828274.682531,-0.6834316253662109,0.46160316467285156,9.738286018371584,-0.6052327221525502,0.4078187344430262,8.407451236287443,-0.2652526571955078,0.17826894744180383,3.6825490592302494
1768828274.6835291,-0.6977767944335938,0.46152782440185547,9.738101005554201,-0.6059291174690316,0.4082793485217735,8.41717005752912,-0.2658573866776162,0.17867641846748822,3.690949564739821
1768828274.6844494,-0.6975030899047852,0.4801969528198242,9.709076881408693,-0.6065710265741018,0.4087212717199691,8.42610527938291,-0.2664156113944169,0.17905256290261717,3.6987040733253735
1768828274.698801,-0.6926078796386719,0.45630550384521484,9.709495544433594,-0.6165110622307566,0.4152699886951723,8.56545213747836,-0.2752635354816982,0.18501235431723706,3.8216320707751317
1768828274.699847,-0.702580451965332,0.46628665924072266,9.737969398498537,-0.6172459208492,0.41575769763903736,8.575637491651833,-0.27590913910384035,0.18544721288245847,3.830601692833017
1768828274.7007635,-0.707127571105957,0.4802236557006836,9.713743209838867,-0.6178939898454701,0.4161978135039135,8.584539952918021,-0.27647542721671103,0.18582865027829554,3.838469260748699
1768828274.7131367,-0.7073087692260742,0.4804563522338867,9.728113174438477,-0.626645669074378,0.42214260036530504,8.70490793039744,-0.2842290450488837,0.19105190890026433,3.946176905894076
1768828274.7141135,-0.7071418762207031,0.4707345962524414,9.718676567077638,-0.6273364059086362,0.4226024143513314,8.714401142595534,-0.28484182782643336,0.19146470732679646,3.95468914093503
1768828274.715056,-0.6927289962768555,0.45645999908447266,9.719075202941896,-0.6279892812658545,0.42303261358733835,8.723561066215098,-0.2854336880322849,0.1918634023001486,3.9629108236968777
1768828274.7234385,-0.7073240280151367,0.47096729278564453,9.73304557800293,-0.6339184665373523,0.4269805246226497,8.805148893296064,-0.29074754686678683,0.19544259166391614,4.036720502236964
1768828274.7244344,-0.7072257995605469,0.47559547424316406,9.723394393920898,-0.6346227746096247,0.42745415798253816,8.814832172901788,-0.2913795514447918,0.19586828231912212,4.045498967981509
1768828274.742565,-0.7168874740600586,0.4709177017211914,9.732922554016115,-0.6476203322413312,0.4359921506095361,8.99129532283564,-0.303121258332345,0.20377305581505903,4.208516015106619
1768828274.7435787,-0.688136100769043,0.4709911346435547,9.72850227355957,-0.6483179342035328,0.4364696206032477,9.001157648424623,-0.3037784943973115,0.20421552942374477,4.2176409908644805
1768828274.744514,-0.702580451965332,0.46628665924072266,9.737969398498537,-0.6489750690018354,0.43690574601623666,9.010265727846217,-0.3043854912186421,0.20462417439597894,4.226068437337206
1768828274.7454224,-0.6978082656860352,0.4663228988647461,9.738037109375,-0.6496089404361101,0.4373293419798756,9.019111515225177,-0.3049755796011393,0.20502143334357628,4.234261170833158
1768828274.7535605,-0.7024917602539062,0.47092628479003906,9.728325843811037,-0.6553259446743596,0.44116182474817833,9.098282379891316,-0.3103087399527768,0.2086116875850319,4.308304628521301
1768828274.754515,-0.7072057723999023,0.45655059814453125,9.728477478027344,-0.6560008944888978,0.4415975518782034,9.107567137349179,-0.31093482036579384,0.20903314368362858,4.316996795624784
1768828274.768277,-0.6879949569702148,0.45179080963134766,9.724005699157717,-0.6654690791760913,0.4478150957456819,9.241388876776455,-0.3200930039853413,0.2151959737876535,4.444176763682725
1768828274.7692313,-0.7072057723999023,0.45655059814453125,9.728477478027344,-0.6661440289906295,0.44825082287570694,9.250673634234317,-0.32072876490015567,0.21562377969871085,4.453005510134541
1768828274.7701368,-0.7025003433227539,0.44716453552246094,9.738261222839357,-0.666780152720321,0.4486557365171393,9.259491763803453,-0.32133254350562435,0.21603004364316794,4.46139010736901
1768828274.7830396,-0.6976718902587891,0.47565650939941406,9.723526000976562,-0.6757820293980785,0.454793007200351,9.384951859237844,-0.33005198107308853,0.22189811805162013,4.582481669811369
1768828274.7839975,-0.7022867202758789,0.4659099578857422,9.714027404785156,-0.6764547960935943,0.4552393330295672,9.394257565765656,-0.3307000016673764,0.2223342217866171,4.591481047753274
1768828274.7848902,-0.6783933639526367,0.4565458297729492,9.719266891479492,-0.6770603565762485,0.45564686371562857,9.402933364001,-0.33130437225544573,0.22274095002037206,4.599874474294321
1768828274.787333,-0.6978769302368164,0.48067283630371094,9.737823486328125,-0.6787651559964161,0.45682106899039354,9.426721277190154,-0.3329624847309218,0.2238568893211179,4.622902415570416
1768828274.7983115,-0.6881237030029297,0.4662179946899414,9.728580474853516,-0.6863196947595043,0.46193942474178584,9.533526111824358,-0.34049721826110724,0.22892827296214274,4.727565853621443
1768828274.7993107,-0.7167997360229492,0.4755563735961914,9.72327995300293,-0.6870359298472977,0.46241460650298905,9.54324173240957,-0.3411837129887164,0.22939032330848244,4.737101577808466
1768828274.8117926,-0.7070913314819336,0.47066783905029297,9.713894844055178,-0.6958617928455624,0.46828944852154564,9.664489867206385,-0.3498694096956894,0.23523547842800846,4.857733043247751
1768828274.8121614,-0.7167320251464844,0.46120643615722656,9.723493576049805,-0.6961261476569689,0.4684595569249268,9.66807621778139,-0.3501261643683181,0.235408262025612,4.861298954042225
1768828274.8123887,-0.7074098587036133,0.4615659713745117,9.742775917053224,-0.6962868803066158,0.4685644306705399,9.670289902208879,-0.35028436973372135,0.23551472591149844,4.863496168711645
1768828274.8125963,-0.7121696472167969,0.49479198455810547,9.727846145629883,-0.6964347712946619,0.4686671804518028,9.672310011860645,-0.35042899317679976,0.235612050548476,4.865504745586457
1768828274.8269827,-0.7071514129638672,0.4707450866699219,9.71868419647217,-0.7066081453299375,0.4754395148545427,9.812127040645237,-0.360594551538176,0.24245192094552828,5.006666081951102
1768828274.8279285,-0.6978769302368164,0.48067283630371094,9.737823486328125,-0.7072682018690557,0.47589413834907646,9.821337137426553,-0.36126349040307815,0.24290202471645925,5.015955166486742
1768828274.8415096,-0.7022113800048828,0.47532081604003906,9.704304695129396,-0.7168049609688296,0.4823494881864008,9.953131663609838,-0.3709984454734945,0.24945283121392867,5.1511290210652865
1768828274.842484,-0.7022485733032227,0.47061634063720703,9.709166526794435,-0.7174892437292328,0.48280806462344117,9.962592437934973,-0.37169757899817973,0.2499232874708228,5.160836737838759
1768828274.8434057,-0.6976490020751953,0.4708738327026367,9.723597526550295,-0.718132285111551,0.48324208138456015,9.971554932794106,-0.3723595003596836,0.25036870437113157,5.170027781542358
1768828274.8562176,-0.6881465911865234,0.47100162506103516,9.728509902954102,-0.7269487498624585,0.4892765067208984,10.096195620892786,-0.38167309445571457,0.2566372656489171,5.299379221991099
1768828274.8571985,-0.7022714614868164,0.4753990173339844,9.709095001220703,-0.7276375756587186,0.48974280376501156,10.105718825895337,-0.3823868007073978,0.25711763185382003,5.309291457072232
1768828274.8581316,-0.7072734832763672,0.4709005355834961,9.728263854980469,-0.7282975822804474,0.4901822341678326,10.114796952976349,-0.3830664263942926,0.2575750553654522,5.31873028536745
1768828274.872017,-0.7026357650756836,0.4758644104003906,9.737833976745607,-0.7380538623026496,0.49678973505410795,10.250009305960702,-0.39331449589203143,0.26447310981735084,5.461054325773164
1768828274.8729713,-0.6977329254150391,0.47573375701904297,9.728315353393555,-0.7387197713308069,0.4972437703909236,10.259293908688505,-0.39401952233852583,0.2649476740866253,5.470845688897172
1768828274.873854,-0.67877197265625,0.48555660247802734,9.737998962402344,-0.7393188728367477,0.497672335068728,10.267888915669118,-0.39467206408734556,0.26538693241993266,5.479908390305035
1768828274.8831801,-0.6692314147949219,0.4903898239135742,9.73805046081543,-0.7455602719467151,0.502245818235906,10.358708112340537,-0.4016253228777765,0.2700709871932476,5.576515976505374
1768828274.8841395,-0.7165718078613281,0.4657573699951172,9.709052085876467,-0.7462477483325074,0.5026926641623959,10.368022941593154,-0.4023412702529048,0.2705532687066023,5.58646301999983
1768828274.8850381,-0.7025375366210938,0.48049259185791016,9.728182792663576,-0.7468790482992063,0.5031244346250787,10.37676468299901,-0.40301241548535327,0.2710053761347005,5.5957875768488865
1768828274.9009285,-0.7263402938842773,0.47072315216064453,9.723228454589844,-0.758420856963312,0.5106043949160721,10.531270282323703,-0.415063995841891,0.27911906372548106,5.763133251613184
1768828274.9019465,-0.7026281356811523,0.49962520599365234,9.727897644042969,-0.7591361656627669,0.5111130370244155,10.54117374257362,-0.4158368323905484,0.2796394009895645,5.77386466542601
1768828274.9028542,-0.6974363327026367,0.48961830139160156,9.69936275482178,-0.7597692003971588,0.5115574437420491,10.549977461619164,-0.41652644414637535,0.28010372097884667,5.783440453017082
1768828274.9127736,-0.6977701187133789,0.47102832794189453,9.733177185058594,-0.766690664790076,0.5162297644856153,10.646524787894123,-0.4241315593475127,0.2852244130773269,5.889047644055294
1768828274.913746,-0.6976652145385742,0.4613838195800781,9.72852897644043,-0.7673691507582134,0.5166784645798543,10.655985873617738,-0.4248778330477363,0.2857268877327217,5.899410690314814
1768828274.9146574,-0.6931772232055664,0.48555850982666016,9.742605209350586,-0.7680007986662076,0.5171209228815314,10.664863684360625,-0.42557766287707205,0.28619810683540314,5.909128896005585
1768828274.9255407,-0.6832427978515625,0.4708709716796875,9.718991279602053,-0.7754367563927644,0.5222455676653226,10.770638686346956,-0.43401699799818316,0.2918818783676494,6.0263493251290745
1768828274.9265091,-0.6833572387695312,0.4567537307739258,9.733574867248537,-0.7760985579941462,0.5226879136789648,10.780065227940213,-0.43476861551149937,0.29238807875402195,6.03678934687187
1768828274.9423258,-0.7025375366210938,0.48049259185791016,9.728182792663576,-0.7872103753968531,0.5302877153490044,10.93393286520859,-0.44721967683271674,0.3007754743830114,6.209727957491877
1768828274.9433234,-0.7122068405151367,0.4900856018066406,9.732707977294922,-0.7879208325837226,0.530776596974647,10.943641663182461,-0.4480056620077375,0.3013049470396767,6.2206447142931856
1768828274.9442222,-0.6926403045654297,0.46109867095947266,9.709431648254396,-0.7885434040397286,0.5311910500017802,10.952368869725888,-0.448714434818013,0.3017824017636325,6.230489120096596
1768828274.9451106,-0.7024307250976562,0.47084903717041016,9.723536491394045,-0.7891674067066106,0.531609327626029,10.96100675028174,-0.44941548981006624,0.3022546556476463,6.240226304418846
1768828274.956032,-0.7021274566650391,0.4704608917236328,9.699586868286133,-0.7968356764683904,0.5367474560325718,11.066940577506102,-0.45811811333655933,0.30811673132598055,6.361093655467888
1768828274.9570491,-0.7167997360229492,0.4755563735961914,9.72327995300293,-0.797564728934276,0.5372311414043907,11.076830063885609,-0.4589293113645596,0.30866314571302333,6.372359829081565
1768828274.9728248,-0.7167835235595703,0.4850454330444336,9.718347549438477,-0.8088724768197153,0.5448830632044519,11.230143610221603,-0.47168982515807745,0.3172590468508789,6.549522987117116
1768828274.973807,-0.7023468017578125,0.4659872055053711,9.718816757202148,-0.8095623812289432,0.5453407952350062,11.239690253726621,-0.4724850457740994,0.3177947266862862,6.560563561154036
1768828274.9747083,-0.7070837020874023,0.45639514923095703,9.718897819519045,-0.8101996207790307,0.5457521086887027,11.24844914048299,-0.473215215682276,0.31828657061816223,6.570700913561259
1768828274.975627,-0.6977100372314453,0.4709510803222656,9.728386878967287,-0.8108405559075891,0.5461847369656425,11.25738589724756,-0.47396007553552266,0.31878831054724904,6.581042249778685
1768828274.984435,-0.7073945999145508,0.4710559844970703,9.737843513488771,-0.8170713837396306,0.5503338621342664,11.343158147127951,-0.48115695139403863,0.3236357260428088,6.680954329253014
1768828274.9854193,-0.6882228851318359,0.4615898132324219,9.738231658935547,-0.8177487271248083,0.5507881550870479,11.352742435793743,-0.4819617730630381,0.3241778072806493,6.692127606339024
1768828275.0002985,-0.7072505950927734,0.46611690521240234,9.728334426879883,-0.8282720690519909,0.5577236141812136,11.497492528994599,-0.49428582093496076,0.33247630336338946,6.863201403982088
1768828275.0012662,-0.7025976181030273,0.48056983947753906,9.732973098754883,-0.8289520015823655,0.5581886813242818,11.506911526236536,-0.4950880317843467,0.3330164854430611,6.874337114194079
1768828275.0021632,-0.7026653289794922,0.4949197769165039,9.732759475708008,-0.8295822436839444,0.5586325900635529,11.515641136953263,-0.49583210956238544,0.3335175401600819,6.884665846197581
1768828275.0137947,-0.7119722366333008,0.4660148620605469,9.72348403930664,-0.8378635407802904,0.5640530367122665,11.628739732653912,-0.5055777099529406,0.34007831673923417,7.019925402156628
1768828275.0147402,-0.7023553848266602,0.48025989532470703,9.713813781738281,-0.8385276656163114,0.564507155141655,11.637924804946806,-0.5063705949516994,0.3406120966887304,7.03092985242452
1768828275.0156295,-0.6929512023925781,0.47575855255126953,9.728377342224123,-0.8391439080214695,0.5649302478409481,11.646576263564612,-0.507116846720031,0.34111448989257226,7.041287167836826
1768828275.0291364,-0.7073564529418945,0.47576045989990234,9.732982635498047,-0.8486980933575978,0.5713562917267154,11.778038583002171,-0.5185801179528493,0.3488317361005014,7.200371831658103
1768828275.0301394,-0.6929655075073242,0.46626949310302734,9.733309745788576,-0.8493931564455579,0.5718239725999865,11.787801355109423,-0.5194320821903405,0.3494052909626974,7.2121953142432815
1768828275.031037,-0.6976947784423828,0.4804401397705078,9.723454475402834,-0.8500194393379843,0.5722552377458214,11.796529574642364,-0.5201950986977534,0.3499189735594079,7.222784421243759
1768828275.0434508,-0.70245361328125,0.4756317138671875,9.723464965820312,-0.8587395159663629,0.5781596062527115,11.917234142164261,-0.5308552679124361,0.35709609668132747,7.370721869287598
1768828275.044433,-0.7024984359741211,0.485198974609375,9.72332286834717,-0.8594295693235381,0.578636209707156,11.92678521195262,-0.5316994722966708,0.35766448208782003,7.382437366083549
1768828275.0453277,-0.7120933532714844,0.4661693572998047,9.733063697814943,-0.860066569946639,0.579053219878233,11.935491890103322,-0.5324688418441428,0.3581824721240652,7.393114218684521
1768828275.058391,-0.6977558135986328,0.4805173873901367,9.728243827819826,-0.8691816547232065,0.5853304255099374,12.06257613001867,-0.5438233362311958,0.3658288956247319,7.550692847061478
1768828275.0593624,-0.7025899887084961,0.46629810333251953,9.73797607421875,-0.8698640925279051,0.5857833489205859,12.072034794561432,-0.5446682502653142,0.36639787712047056,7.562418623198124
1768828275.0602734,-0.6977863311767578,0.46153926849365234,9.738108634948732,-0.8704997740549061,0.586203809989911,12.080906186118682,-0.5454612732881241,0.36693190726181735,7.573424297211538
1768828275.0730455,-0.7169361114501953,0.46622276306152344,9.737791061401367,-0.8796565417785587,0.5921584459479163,12.205278064542199,-0.55669631989969,0.3744950042498826,7.729311125137584
1768828275.0740001,-0.7167091369628906,0.4564237594604492,9.723565101623537,-0.8803407323819101,0.5925941608443281,12.214560451957823,-0.5575367178041951,0.37506071122296336,7.740971486439397
1768828275.0748897,-0.6930418014526367,0.45685863494873047,9.743032455444336,-0.8809572205909717,0.5930005547459132,12.223227266306822,-0.5583203642423229,0.37558820876957827,7.751844532582593
1768828275.0834017,-0.7218389511108398,0.4663515090942383,9.74730968475342,-0.8871015282597909,0.5969701481701577,12.306196562372406,-0.5658713902914436,0.38066963067651943,7.8565951252124595
1768828275.0843527,-0.7024307250976562,0.47084903717041016,9.723536491394045,-0.8877695762034818,0.5974179499530692,12.315444148399592,-0.5667157050667855,0.3812378060406234,7.868307749454281
1768828275.1025581,-0.7023468017578125,0.4659872055053711,9.718816757202148,-0.900556083675383,0.605901435419355,12.492379136603404,-0.5831106926483648,0.39226848662724434,8.095736562075373
1768828275.1035235,-0.6930112838745117,0.47583580017089844,9.73316764831543,-0.9012250868493084,0.6063607867574774,12.501775116438921,-0.5839806964384222,0.3928538411522337,8.107805236030924
1768828275.104434,-0.6881618499755859,0.46151161193847656,9.733442306518555,-0.9018516723579069,0.6067810025658673,12.510637615716178,-0.5848018509223926,0.39340632772659717,8.119196428718535
1768828275.1053364,-0.6880626678466797,0.4661407470703125,9.723791122436523,-0.902472589963736,0.6072016546520445,12.519412504088223,-0.5856162551126975,0.3939542751960362,8.13049412586399
1768828275.1146443,-0.6977863311767578,0.46153926849365234,9.738108634948732,-0.9089674883709904,0.6114975981606676,12.610053468860542,-0.5940767984462288,0.3996460100421972,8.247866754892385
1768828275.1156712,-0.6929435729980469,0.4614858627319336,9.733381271362305,-0.9096790505202534,0.6119714836040657,12.62004837460313,-0.5950109194995885,0.4002744244775559,8.26082588907756
1768828275.116587,-0.7070379257202148,0.4848623275756836,9.704100608825685,-0.9103265316452962,0.6124155039231027,12.628935057694889,-0.5958445653698091,0.4008352536283682,8.272391035418075
1768828275.132851,-0.6976871490478516,0.4661674499511719,9.728457450866701,-0.9216736887801744,0.619997233517779,12.787158317970807,-0.6108346310288144,0.4109188649454422,8.480360889729706
1768828275.1338873,-0.7027111053466797,0.46645259857177734,9.747555732727053,-0.9224019824791867,0.62048066758598,12.797260738961313,-0.611790613575105,0.41156193456128226,8.493624041955263
1768828275.134769,-0.6977100372314453,0.4709510803222656,9.728386878967287,-0.9230171338172113,0.6208958919223733,12.805837984358504,-0.612604411850303,0.4121093610254415,8.504914589532682
1768828275.1437156,-0.6977863311767578,0.46153926849365234,9.738108634948732,-0.9292599889076882,0.6250251255330568,12.892961503904644,-0.6209181824028812,0.4177012465529636,8.62026349615319
1768828275.144675,-0.7023468017578125,0.4659872055053711,9.718816757202148,-0.929933817874371,0.6254721919628992,12.90228570134741,-0.621810357524934,0.4183013222986555,8.632641902120477
1768828275.1456044,-0.6976795196533203,0.45189476013183594,9.733462333679201,-0.9305822102578531,0.6258921628984808,12.911331549282295,-0.6226751993331542,0.4188829986985966,8.64464112067476
1768828275.1574907,-0.697504997253418,0.46593475341796875,9.714088439941406,-0.9388730045441207,0.631430430303908,13.02679668465953,-0.6338349802268488,0.4263884070101547,8.799482293063242
1768828275.1584778,-0.6976490020751953,0.4708738327026367,9.723597526550295,-0.9395616210269964,0.6318952076942423,13.036394389966517,-0.6347623772660362,0.4270121210184512,8.812349904179285
1768828275.1731157,-0.6927995681762695,0.45654869079589844,9.723873138427734,-0.949702784444753,0.6385781432707063,13.178731930403956,-0.64866407636886,0.43635959408770136,9.00525948479125
1768828275.174096,-0.7072286605834961,0.4613332748413086,9.728405952453615,-0.9503961352968417,0.6390304238937006,13.188269437765484,-0.6495958230682745,0.4369860849436457,9.01818896341943
1768828275.1750212,-0.6929512023925781,0.47575855255126953,9.728377342224123,-0.951037159568159,0.639470531044708,13.197268810268724,-0.6504755933899117,0.43757763616655504,9.030397282841161
1768828275.1759472,-0.6880474090576172,0.4756288528442383,9.71885871887207,-0.951674303689515,0.6399109718101954,13.20626864606129,-0.6513568606980348,0.4381702050920575,9.042626522166994
1768828275.1867125,-0.7167320251464844,0.46120643615722656,9.723493576049805,-0.9593901490673034,0.6448760039613717,13.310945108577926,-0.6616849969992747,0.44511249783165574,9.185923027257617
1768828275.1876702,-0.6879415512084961,0.4659852981567383,9.714211463928224,-0.960049009562681,0.645322290864442,13.320248675379617,-0.6626044622720383,0.44573054069225965,9.198680194818433
1768828275.2020938,-0.6832971572875977,0.4566764831542969,9.728784561157227,-0.9699046204398201,0.6519092137964435,13.46057285779375,-0.6765939870710866,0.45513342415207647,9.392830231672688
1768828275.2030432,-0.6831598281860352,0.46601009368896484,9.714272499084474,-0.970553200618042,0.6523516357556218,13.469795420843866,-0.6775154135687513,0.45575275556286093,9.405618223522064
1768828275.2039483,-0.6930723190307617,0.47591400146484375,9.737957000732422,-0.97118045665934,0.6527823555006762,13.478608631515954,-0.6783943677440993,0.45634354769940627,9.417816862048321
1768828275.2168455,-0.6930341720581055,0.4806194305419922,9.733096122741701,-0.980118693739314,0.6589810259106343,13.604138835039521,-0.6910352065430582,0.46484259273682743,9.593272882947488
1768828275.2177982,-0.7023630142211914,0.4564990997314453,9.72375011444092,-0.980787849481203,0.6594159420260439,13.613402852492072,-0.6919696233727698,0.4654708319165188,9.606242652854142
1768828275.2186885,-0.6881694793701172,0.4757843017578125,9.728438377380373,-0.9814004957834186,0.6598395113674087,13.62206364315034,-0.6928433200459855,0.46605825732379635,9.618369762773577
1768828275.2314491,-0.7026729583740234,0.4711589813232422,9.742695808410646,-0.9903670518742729,0.66585180112952,13.74638666910596,-0.7054810366612845,0.47455495191247044,9.793782443233527
1768828275.2324347,-0.7021579742431641,0.45148277282714844,9.709451675415039,-0.9910591145062426,0.6662967926663441,13.75595652222728,-0.7064578467302182,0.4752116689603722,9.807340622197875
1768828275.233349,-0.6977100372314453,0.4709510803222656,9.728386878967287,-0.9916970553881583,0.6667273998405108,13.76485152928467,-0.7073645903061282,0.47582128132475693,9.819926311173878
1768828275.2428029,-0.6928377151489258,0.4518423080444336,9.728734016418459,-0.9982469862184189,0.6709990146778182,13.856824777103384,-0.7168017912094324,0.4821647540272613,9.950925594025504
1768828275.2437716,-0.7073268890380859,0.45670604705810547,9.738057136535646,-0.9989321700177243,0.6714414233990738,13.866257981312174,-0.7177694514950917,0.4828151757666656,9.964357764459043
1768828275.244697,-0.7025680541992188,0.4615144729614258,9.738047599792482,-0.9995824255038315,0.6718685739308512,13.875270942886345,-0.718694605936879,0.4834370176274367,9.977199895549276
1768828275.2609577,-0.6975812911987305,0.4565238952636719,9.72381114959717,-1.0109255325419326,0.6792919373076529,14.033386179174613,-0.7351328858446836,0.4944827283599579,10.205391510699744
1768828275.2619126,-0.7073335647583008,0.470977783203125,9.73305416107178,-1.011600941603092,0.679741658172361,14.042679945652935,-0.7360988296034384,0.49513179083634973,10.218800394076423
1768828275.2627969,-0.7167768478393555,0.47077369689941406,9.723351478576662,-1.012234783434451,0.6801579607679287,14.051278251983149,-0.7369939432651469,0.4957332507869132,10.231225862291556
1768828275.2732766,-0.7119045257568359,0.45166492462158203,9.723698616027834,-1.0196953212089284,0.6848912685495634,14.153179585951193,-0.7476800327435773,0.5029106980365871,10.379546777680732
1768828275.2742891,-0.6881465911865234,0.47100162506103516,9.728509902954102,-1.020392113471189,0.6853681877003055,14.16303032198698,-0.7487132447629998,0.5036046769883186,10.393887748143884
1768828275.2752635,-0.6835842132568359,0.466552734375,9.747800827026367,-1.0210582093668563,0.6858228044914085,14.17252874222072,-0.7497081809673576,0.5042729542047426,10.407697697296223
1768828275.290268,-0.7168607711791992,0.4756336212158203,9.728069305419922,-1.0318142725689086,0.692959399903657,14.318492550661404,-0.7651899313639857,0.5146703917567504,10.622538035929468
1768828275.291291,-0.7075157165527344,0.4712104797363281,9.74742317199707,-1.032538099439762,0.6934414737277166,14.328464692125408,-0.7662462737236945,0.5153798199154547,10.637196830807929
1768828275.2922683,-0.7121925354003906,0.46154117584228516,9.742714881896974,-1.033234109362411,0.6938925276522241,14.337986030659977,-0.7672560304352434,0.5160579456476015,10.651209025617765
1768828275.3028104,-0.7024688720703125,0.4661426544189453,9.728396415710451,-1.0406396446112467,0.6988066754465763,14.440544286884005,-0.7782266141520592,0.5234248734545085,10.803443471841298
1768828275.3039253,-0.7072353363037109,0.47560596466064453,9.723402976989748,-1.0414281025848595,0.699336902509458,14.45138437675837,-0.7793876453523935,0.524204525896519,10.819554529443637
1768828275.3048415,-0.7068862915039062,0.4656515121459961,9.699595451354982,-1.042075781918129,0.6997635522614019,14.460271559308694,-0.780342439575681,0.5248456790726694,10.83280364624643
1768828275.3160028,-0.7073564529418945,0.47576045989990234,9.732982635498047,-1.0499708188510795,0.7050736705002691,14.568904564712739,-0.7920615076054887,0.5327152371234926,10.995411959399808
1768828275.317008,-0.7167234420776367,0.4849681854248047,9.713558197021484,-1.0506912497096437,0.7055611472949295,14.57866836851872,-0.7931176337968129,0.5334244479477427,11.010066039276154
1768828275.3334022,-0.7167997360229492,0.4755563735961914,9.72327995300293,-1.0624425637413424,0.7133574842703183,14.738073165149672,-0.810535464161036,0.5451193292280208,11.251684049554385
1768828275.3344362,-0.692988395690918,0.4710531234741211,9.733239173889162,-1.0631591285568902,0.7138445632699586,14.748137542528411,-0.8116347934277155,0.5458574597666993,11.266933939052606
1768828275.3353503,-0.6977396011352539,0.4900064468383789,9.723312377929688,-1.063796930116041,0.7142924766108081,14.757025591572301,-0.8126072068317188,0.5465103922568874,11.28042328939967
1768828275.3362682,-0.7120018005371094,0.48507022857666016,9.718409538269045,-1.064450484777808,0.7147377281662557,14.76594623173628,-0.8135842782043219,0.5471664582581691,11.293977121690363
1768828275.3446407,-0.7026586532592773,0.4806480407714844,9.737762451171875,-1.0703335261421216,0.7187619756332424,14.84747608841758,-0.8225456940763075,0.5531843254176102,11.418288286974748
1768828275.3456323,-0.70697021484375,0.47051239013671875,9.70431423187256,-1.0710345456971027,0.7192285276596522,14.857098720179692,-0.8236077135855168,0.5538975001056005,11.43302033157076
1768828275.3602855,-0.6977558135986328,0.4805173873901367,9.728243827819826,-1.0812589052818566,0.7262696478619546,14.999648679757684,-0.8394516229250932,0.564539678774003,11.652813271676653
1768828275.3613107,-0.6929740905761719,0.4805421829223633,9.72830581665039,-1.081969342243383,0.7267622996550926,15.00962213781213,-0.8405608577758924,0.5652847554037649,11.668201134643331
1768828275.3622155,-0.7023773193359375,0.4850435256958008,9.713743209838867,-1.0826048521937537,0.7272011663133071,15.01841111817248,-0.8415403970305757,0.5659427259338359,11.681789770610935
1768828275.3737247,-0.7124118804931641,0.4951019287109375,9.747005462646484,-1.0908041288096229,0.7328993835633355,15.13059115917531,-0.8540946581690213,0.5743777969117032,11.855930468811845
1768828275.3747253,-0.6978769302368164,0.48067283630371094,9.737823486328125,-1.0915024543187428,0.7333803653648374,15.140335241905632,-0.8551868622154557,0.5751116486767246,11.871080535905284
1768828275.3756561,-0.6932840347290039,0.49520206451416016,9.747251510620117,-1.0921477534843689,0.7338412925794273,15.149407848444753,-0.8562034181993813,0.5757946979755427,11.885181394650937
1768828275.3894794,-0.7027492523193359,0.49978065490722656,9.737477302551271,-1.101862046702081,0.7407498959116765,15.284011634084663,-0.8714347556526846,0.5860342843801197,12.096456426344538
1768828275.3904846,-0.6881618499755859,0.46151161193847656,9.733442306518555,-1.1025537682271533,0.741213794798341,15.293795424855261,-0.8725430126333054,0.5867793322733744,12.111829332436034
1768828275.3914165,-0.6930561065673828,0.48540306091308594,9.733025550842287,-1.103199681427668,0.741666179881804,15.302866392738906,-0.873571170715004,0.5874705490037683,12.126091270704986
1768828275.4031272,-0.6927461624145508,0.47074317932128906,9.71407985687256,-1.1113121849575691,0.7471788855611976,15.416624521479662,-0.8865853518284249,0.5962204947637787,12.306629868585835
1768828275.4041166,-0.6976490020751953,0.4708738327026367,9.723597526550295,-1.1120024647652826,0.7476447856022332,15.42624540964971,-0.887685608325993,0.596960242254721,12.321893168158313
1768828275.4050283,-0.6977558135986328,0.4805173873901367,9.728243827819826,-1.1126386175646985,0.7480828793811725,15.435114772575616,-0.8887000150245936,0.5976422788764713,12.335965557496408
1768828275.4191167,-0.693049430847168,0.4711313247680664,9.738028526306154,-1.1224025698004425,0.7547203622893903,15.572307938270797,-0.904512862698982,0.6082750753852704,12.555354340088314
1768828275.4201286,-0.6834020614624023,0.4663200378417969,9.733431816101076,-1.1230940691168598,0.7551922074967479,15.582156696164247,-0.9056492636916931,0.6090392154496568,12.57112112118442
1768828275.4210644,-0.6977701187133789,0.47102832794189453,9.733177185058594,-1.1237470374558143,0.755632992472556,15.591264934492074,-0.9067008582165568,0.609746331456378,12.585711316570325
1768828275.4325056,-0.6978082656860352,0.4663228988647461,9.738037109375,-1.1317308228594811,0.7609683003736336,15.702680064345486,-0.919649251734857,0.6184527453925949,12.765369302955627
1768828275.4335134,-0.6882905960083008,0.4759397506713867,9.738018035888672,-1.1324244789104796,0.7614479502335598,15.712493993483122,-0.9207905038406544,0.6192201290838193,12.781204281085598
1768828275.434475,-0.6978540420532227,0.4758892059326172,9.737895011901857,-1.1330954949721672,0.7619055377540462,15.721857389789875,-0.9218800228958356,0.6199527333570818,12.796321509320133
1768828275.4483654,-0.6976490020751953,0.4708738327026367,9.723597526550295,-1.1427861918100461,0.768446213004836,15.856923068265814,-0.9377539000208711,0.6306268391958275,13.016582175900389
1768828275.449357,-0.707341194152832,0.48525047302246094,9.728050231933594,-1.1434875792217554,0.768927379061779,15.866569236239002,-0.9388877627170379,0.6313892944135509,13.032315194168383
1768828275.450332,-0.6882743835449219,0.4854288101196289,9.733086585998537,-1.144158573492632,0.7694006204874313,15.876057959767422,-0.9400031955533348,0.6321393781311767,13.047792660989455
1768828275.462809,-0.7024917602539062,0.47092628479003906,9.728325843811037,-1.1529236752328416,0.7752764428555565,15.997439832989812,-0.9543884081406819,0.6418126259653728,13.247395269379275
1768828275.4637957,-0.6976947784423828,0.4804401397705078,9.723454475402834,-1.1536120042126186,0.7757504336054808,16.007032760593347,-0.9555265341500108,0.6425779627874676,13.263187425017811
1768828275.4647012,-0.7021579742431641,0.45148277282714844,9.709451675415039,-1.1542478179223963,0.7761592574702263,16.015824802720772,-0.9565717214355459,0.6432807856777187,13.277689974809322
1768828275.4741654,-0.7071895599365234,0.46603965759277344,9.72354507446289,-1.1609408465562865,0.7805699797850139,16.107850999504763,-0.9675591719982373,0.6506683059713231,13.43013892778849
1768828275.4751358,-0.6831150054931641,0.45644378662109375,9.714415550231935,-1.1616037165038051,0.7810128962287308,16.117277514914576,-0.9686863499820387,0.651426172470187,13.445778547493143
1768828275.476116,-0.688267707824707,0.4711570739746094,9.738089561462404,-1.1622783143743618,0.7814746955477858,16.126822194124088,-0.9698255440295834,0.6521921261238556,13.461585071302586
1768828275.4921277,-0.6927614212036133,0.46125316619873047,9.719011306762695,-1.1733706127688492,0.7888601497579657,16.282440232620957,-0.9886132197946997,0.6648231299656003,13.722294862758417
1768828275.493077,-0.7118358612060547,0.47534847259521484,9.708971977233888,-1.174046417479076,0.7893114374132892,16.291657763446892,-0.9897278392487026,0.6655724886539023,13.737761882128984
1768828275.4940035,-0.7120561599731445,0.47087574005126953,9.728202819824219,-1.1747061336650404,0.789747701242959,16.30067089081149,-0.9908161981362372,0.6663041856331937,13.752864365659432
1768828275.5033162,-0.707371711730957,0.46627235412597656,9.737914085388185,-1.1812936244764387,0.7940899230161449,16.39135647873627,-1.001817148227611,0.6736992510345119,13.905510998821796
1768828275.5042844,-0.6929283142089844,0.4709758758544922,9.728448867797852,-1.1819645300388402,0.7945459302659401,16.40077573658027,-1.002961547383344,0.6744685445866269,13.921390522639395
1768828275.505171,-0.6835317611694336,0.48074817657470703,9.738007545471193,-1.1825706030892889,0.7949721994320953,16.4094102204092,-1.0040101075432393,0.6751734294995202,13.935940397090485
1768828275.518141,-0.7072429656982422,0.4518442153930664,9.733339309692383,-1.1917435236343863,0.8008326056681199,16.535651346099485,-1.0194669861304162,0.685560204933143,14.150407310606486
1768828275.5191298,-0.7070684432983398,0.4658842086791992,9.713965415954592,-1.1924426176519773,0.8012932355636622,16.54525575593243,-1.0206459801984196,0.6863524610614261,14.166765966445416
1768828275.5326874,-0.6977558135986328,0.4805173873901367,9.728243827819826,-1.2019025624581445,0.8078079329327466,16.677148099756096,-1.0369409815178714,0.6973044564595233,14.392869278626085
1768828275.533666,-0.7022418975830078,0.4563436508178711,9.714170455932617,-1.2025896849813762,0.8082544514356869,16.686653122651705,-1.0381176792649025,0.6980953090702764,14.409196665581193
1768828275.534577,-0.716914176940918,0.4614391326904297,9.7378625869751,-1.203242791925959,0.8086748212815564,16.695524290059893,-1.0392138303087823,0.6988320097224268,14.424406244646592
1768828275.5355127,-0.6930723190307617,0.47591400146484375,9.737957000732422,-1.2038913640972169,0.8091201782360713,16.7046370013054,-1.0403404233273337,0.6995891786590552,14.440038325733257
1768828275.547695,-0.7026357650756836,0.4758644104003906,9.737833976745607,-1.212451038611107,0.8149172706532681,16.82326559019066,-1.0551107876759533,0.7095166929406379,14.644983312695667
1768828275.5487235,-0.6836299896240234,0.4761190414428711,9.747658729553224,-1.2131541778626342,0.8154069770610022,16.8332914251705,-1.0563585625447514,0.7103553697983576,14.662296988387315
1768828275.5632064,-0.7073945999145508,0.4710559844970703,9.737843513488771,-1.2233993561726493,0.8222292691109487,16.974324369389706,-1.074077024842683,0.7222636957521782,14.90813570397468
1768828275.5641825,-0.712101936340332,0.4804420471191406,9.728059768676758,-1.224094428663193,0.8226982217049681,16.98381978905718,-1.0752718458644657,0.7230667196912298,14.924713366971067
1768828275.5650818,-0.7025976181030273,0.48056983947753906,9.732973098754883,-1.2247262851560663,0.8231304053126678,16.99257279659514,-1.0763732604370881,0.7238069731132134,14.939995040542835
1768828275.5660398,-0.702392578125,0.4755535125732422,9.718674659729006,-1.2253991532597865,0.8235859693379552,17.00188295503449,-1.0775471509795471,0.724595940347062,14.956282263813568
1768828275.5769856,-0.7024984359741211,0.485198974609375,9.72332286834717,-1.2330885585092801,0.828896858802409,17.108312472991656,-1.0910442879827689,0.7336688770697265,15.143546378583277
1768828275.577997,-0.6976718902587891,0.47565650939941406,9.723526000976562,-1.2337941640539611,0.8293779242933397,17.118146571162924,-1.0922921123760214,0.7345076863584314,15.160859186084801
1768828275.5915565,-0.7025823593139648,0.4520254135131836,9.74298095703125,-1.2433208856557485,0.8355071989817588,17.250257299419445,-1.1091510212033022,0.7458368129376421,15.394765427356269
1768828275.5925195,-0.7121095657348633,0.4566812515258789,9.737996101379396,-1.2440066276849393,0.8359469705326319,17.259634723243153,-1.1103489655509746,0.7466418069995846,15.411385983388254
1768828275.593429,-0.688267707824707,0.4711570739746094,9.738089561462404,-1.2446326531960494,0.8363755194020541,17.268492166975648,-1.1114810421891828,0.7474025464706671,15.42709283191831
1768828275.6062746,-0.6975879669189453,0.4707956314086914,9.718807220458984,-1.253593530729404,0.8424231323144795,17.39333526261771,-1.1275840982024423,0.7582239064681398,15.650519201890376
1768828275.6075983,-0.6978082656860352,0.4663228988647461,9.738037109375,-1.2545172194966199,0.8430404039129371,17.4062255018639,-1.1292447025846342,0.7593398390096352,15.67355982173728
1768828275.6085846,-0.7072887420654297,0.4614105224609375,9.733196258544922,-1.255214845020646,0.8434955104887649,17.41582571990284,-1.130482768259857,0.7601718103991415,15.690737706555176
1768828275.620951,-0.702484130859375,0.4566535949707031,9.733329772949219,-1.2639019709179138,0.8491426234934352,17.536190945852923,-1.1461125527074245,0.7706725584601685,15.907595414527583
1768828275.6218894,-0.6978464126586914,0.46161651611328125,9.742898941040039,-1.2645568408272538,0.8495758115998342,17.545333833500536,-1.1472992324820657,0.7714698135934294,15.924060228229369
1768828275.6228004,-0.7027111053466797,0.46645259857177734,9.747555732727053,-1.2651970088106737,0.8500007487000403,17.55421383133921,-1.1484518236558732,0.7722441620576281,15.940052071226335
1768828275.6336274,-0.7025070190429688,0.46143627166748047,9.73325824737549,-1.2728030976275022,0.8549967489825576,17.659596446316527,-1.162232544907709,0.7815012670182595,16.13125366124464
1768828275.6345897,-0.6832590103149414,0.4613819122314453,9.723923683166506,-1.273460568656219,0.8554407171350249,17.6689533636943,-1.1634579417447282,0.7823244211659696,16.14825574210856
1768828275.6355438,-0.7072658538818359,0.45662784576416016,9.733267784118654,-1.2741354071865771,0.8558764091208104,17.67824037237847,-1.1646736595132925,0.7831410566290408,16.165123455552855
1768828275.6504405,-0.6928062438964844,0.47082042694091797,9.718869209289553,-1.2844558863232578,0.8628900474016064,17.823018783067255,-1.1838077251969825,0.7959952114665775,16.430626393962857
1768828275.6514192,-0.6831979751586914,0.4613037109375,9.719133377075195,-1.285124537829688,0.8633415291571964,17.832530979253534,-1.1850654872065534,0.796840170958591,16.448079239457567
1768828275.6523209,-0.7026891708374023,0.4616689682006836,9.747627258300781,-1.2857581519988344,0.863757815634699,17.84132040564964,-1.186224854131521,0.7976190205743391,16.46416674140644
1768828275.6629846,-0.7074546813964844,0.4711332321166992,9.742633819580078,-1.2933022702923154,0.8687818615962897,17.94521339548737,-1.2000163033548878,0.8068834912287355,16.655529971048345
1768828275.663993,-0.6977329254150391,0.47573375701904297,9.728315353393555,-1.294005774983816,0.869261530704307,17.95502218512911,-1.2013210133669439,0.8077599434394833,16.673633520247666
1768828275.664886,-0.6977701187133789,0.47102832794189453,9.733177185058594,-1.294628964639287,0.8696822136391802,17.96371504137778,-1.20247726720585,0.8085366705370644,16.68967720152232
1768828275.6753857,-0.6976490020751953,0.4708738327026367,9.723597526550295,-1.3019540808927559,0.8746262550625943,18.065810052009283,-1.2161474150464537,0.81771999765086,16.8793630728565
1768828275.676367,-0.7070913314819336,0.47066783905029297,9.713894844055178,-1.3026479714453671,0.8750881359433151,18.075342596903056,-1.2174257437156368,0.8185787486540164,16.89710096456126
1768828275.6928988,-0.7025070190429688,0.46143627166748047,9.73325824737549,-1.314261610846188,0.8827164646579604,18.2362499592723,-1.2391527300844036,0.8331715576022753,17.198577284810337
1768828275.6939209,-0.6880855560302734,0.47092437744140625,9.72372055053711,-1.3149649034016875,0.8831977966754039,18.246188578409146,-1.2404967563020748,0.8340742744664672,17.217226722341724
1768828275.6947918,-0.6835155487060547,0.4902362823486328,9.733076095581055,-1.3155602065316998,0.8836247645679123,18.2546655335791,-1.2416425343464084,0.8348438613311691,17.233125496773468
1768828275.6956835,-0.6977329254150391,0.47573375701904297,9.728315353393555,-1.316182364854285,0.8840489694541702,18.263340131181394,-1.2428161550578674,0.835632154966003,17.2494106520914
1768828275.7055693,-0.7070760726928711,0.48015689849853516,9.708961486816406,-1.3231723689832506,0.8887956987421148,18.359320865789414,-1.2558967565372836,0.8444186007869647,17.430907005331196
1768828275.706578,-0.6928672790527344,0.4708986282348633,9.72365951538086,-1.3238712981637946,0.8892707172662995,18.36912959768142,-1.2572322103962625,0.8453156517410095,17.449436846593965
1768828275.7221227,-0.7072582244873047,0.4803895950317383,9.723331451416016,-1.3348653818015919,0.8967382067964991,18.520275410503018,-1.2779822294764442,0.8592551359426613,17.73732810018202
1768828275.7230926,-0.6831827163696289,0.4707937240600586,9.71420192718506,-1.3355279916863765,0.8971948234054707,18.52969708652836,-1.279277540419614,0.860125313340774,17.755299808419668
1768828275.7240167,-0.6976718902587891,0.47565650939941406,9.723526000976562,-1.3361727175447413,0.8976343825386266,18.538682698153025,-1.280512311540926,0.8609548266203836,17.772431598136876
1768828275.7249205,-0.6980428695678711,0.49039363861083984,9.747261047363281,-1.3368036399858738,0.8980776222952045,18.547492709690232,-1.2817205746041629,0.8617665494392639,17.78919565359457
1768828275.73475,-0.7025041580200195,0.47569847106933594,9.728246688842773,-1.3437089194856071,0.9027535104914932,18.643116716554687,-1.2949285898869256,0.8706401841902365,17.97244856420623
1768828275.7358906,-0.7072486877441406,0.4803791046142578,9.72332286834717,-1.3445156034365482,0.903301428247687,18.65420708496913,-1.2964621369657354,0.8716704848152595,17.9937254498813
1768828275.7493987,-0.716705322265625,0.4706850051879883,9.71855354309082,-1.3541969172954396,0.9096594796285444,18.785486097670855,-1.3147547392051553,0.8839582391452543,18.24748132590644
1768828275.7503586,-0.7025651931762695,0.47577571868896484,9.733036041259766,-1.354871290795245,0.9101161639898692,18.794828578116267,-1.3160552438459114,0.8848318352594662,18.26552197814707
1768828275.7512565,-0.6929340362548828,0.4614753723144531,9.733372688293459,-1.3554934654350745,0.910530515513301,18.80356802130973,-1.3172723202406669,0.8856493863767488,18.282405407952886
1768828275.7641761,-0.7119464874267578,0.4754924774169922,9.718544006347656,-1.3646915751112374,0.9166737187381386,18.92912834816252,-1.3349036773773224,0.8974925031715022,18.526963393272638
1768828275.7652614,-0.7024059295654297,0.48032665252685547,9.718595504760742,-1.3654538831822265,0.9171950083066349,18.939675758826525,-1.3363855790411612,0.8984879178285733,18.547518270566744
1768828275.7665114,-0.69769287109375,0.4566679000854492,9.733382225036623,-1.3663260192322468,0.9177658562471152,18.95184276508212,-1.3380935256561024,0.899635151406374,18.57120861623967
1768828275.778915,-0.7025423049926758,0.4709930419921875,9.733107566833498,-1.3750399943935463,0.9236078128665213,19.07256724953936,-1.3551488179449613,0.9110911099769897,18.80777497828449
1768828275.781451,-0.6977834701538086,0.4758005142211914,9.733097076416016,-1.376809614042486,0.9248144707696611,19.09725095239014,-1.3586404875675184,0.9134364935079824,18.85620672247389
1768828275.782381,-0.6881217956542969,0.4804801940917969,9.723568916320803,-1.3774496160845047,0.9252613514051973,19.106294560660444,-1.359921613340077,0.9142970521446077,18.87397693061358
1768828275.7925994,-0.7024440765380859,0.47562122344970703,9.723456382751467,-1.3846274579091187,0.9301214306974543,19.205652551189587,-1.3740702654688992,0.9238013881198404,19.070227622669147
1768828275.7935455,-0.7072772979736328,0.4994335174560547,9.718249320983888,-1.385296574005224,0.9305939172404578,19.21484645160922,-1.3753808182580276,0.9246817717695734,19.0884057305793
1768828275.7944725,-0.7168493270874023,0.47562313079833984,9.72806167602539,-1.3859610728550251,0.9310348062967932,19.223864086906133,-1.376665564583344,0.9255448144405105,19.1062257034687
1768828275.8073525,-0.7026100158691406,0.48534297943115234,9.732893943786623,-1.3950107509153895,0.9372860660475908,19.349224606678945,-1.3946334242798997,0.9376171404202414,19.355445397827193
1768828275.807605,-0.7023000717163086,0.47068309783935547,9.713948249816896,-1.395188071342318,0.937404906599113,19.351677235576744,-1.3949856887241439,0.9378538213561222,19.360331411380926
1768828275.8078427,-0.6976852416992188,0.48042964935302734,9.723445892333984,-1.395353913442932,0.937519106323407,19.353988530979905,-1.3953173689866385,0.9380766727634128,19.364931918775095
1768828275.8238873,-0.7072486877441406,0.4803791046142578,9.72332286834717,-1.4067014475488122,0.9452266049272566,19.509995519445283,-1.4178873545227955,0.9532424713333745,19.67796231868807
1768828275.8248472,-0.7026710510253906,0.48542022705078125,9.73768424987793,-1.40737592265873,0.9456925467936799,19.519342461581573,-1.419238256952525,0.9541502162639736,19.69669841238808
1768828275.8257408,-0.7166824340820312,0.46590137481689453,9.718625068664553,-1.408016344946418,0.9461088729237872,19.528026955303858,-1.4204964502691895,0.9549956523734493,19.71414851734673
1768828275.8338256,-0.7022552490234375,0.46111583709716797,9.714090347290039,-1.4136939199372591,0.9498368902625316,19.606563180545663,-1.4319258461415612,0.9626748689845491,19.872663149918022
1768828275.8347986,-0.6931304931640625,0.4902524948120117,9.737735748291016,-1.41436832635668,0.9503138991849482,19.616037863255542,-1.4333020070349685,0.9635995113143787,19.891749284475733
1768828275.8357708,-0.6928949356079102,0.46618175506591797,9.728512763977053,-1.4150420079847663,0.9507671541700802,19.625496613754194,-1.4346778112944027,0.9645239146134018,19.9108305850183
1768828275.8522093,-0.7073163986206055,0.49472904205322266,9.723109245300295,-1.426669217422159,0.9588997497071432,19.785329791379127,-1.4581300906720593,0.9802867729905743,20.236071416025304
1768828275.853177,-0.7026033401489258,0.4710702896118164,9.737897872924805,-1.427349155489992,0.9593556237462053,19.794753554527006,-1.4595113949890888,0.9812151807733163,20.2552276108738
1768828275.8540945,-0.6979656219482422,0.47603321075439453,9.747467041015625,-1.4279894933656578,0.9597923531284778,19.80369621895329,-1.4608214820906607,0.9820957275755601,20.273396208822476
1768828275.863306,-0.7070589065551758,0.46587371826171875,9.71395778656006,-1.434502594922833,0.9640837676226965,19.89317673182063,-1.4740354604425967,0.9909764239785558,20.456643006434337
1768828275.86428,-0.697601318359375,0.4755678176879883,9.718728065490724,-1.4351820166780271,0.9645469420934205,19.90264218881839,-1.47543324146613,0.9919158347266683,20.476026983690474
1768828275.8652015,-0.6928577423095703,0.4708881378173828,9.723650932312013,-1.4358204766404015,0.9649808597714582,19.911602414603976,-1.4767563325301576,0.9928050528241207,20.494375282557804
1768828275.8815377,-0.7309532165527344,0.4752378463745117,9.708718299865724,-1.4477614764928148,0.9727444415232185,20.07020600394526,-1.5004072573576883,1.008696003119743,20.822246234492695
1768828275.8825088,-0.7024440765380859,0.47562122344970703,9.723456382751467,-1.4484436050947807,0.973206307244709,20.07964824700798,-1.5018138103408654,1.0096410632034678,20.841745156676225
1768828275.8834329,-0.7026262283325195,0.47585296630859375,9.737826347351076,-1.449092909308547,0.9736460479257403,20.088647073731636,-1.5031529321871788,1.0105408196545405,20.86030928461206
1768828275.8929362,-0.6978816986083984,0.4711732864379883,9.742748260498047,-1.45572513351226,0.9781237794391018,20.18123596229657,-1.5169872188344506,1.0198362865182782,21.052098927293454
1768828275.8941276,-0.6974868774414062,0.48968505859375,9.70414447784424,-1.4565561037820771,0.9787071792684401,20.192797263040575,-1.518722527207568,1.0210022963675414,21.07615617443706
1768828275.8953922,-0.6832637786865234,0.45188236236572266,9.728849411010742,-1.457420140123304,0.9792786171160515,20.205100094994577,-1.5205655401182234,1.022240664827525,21.101706981174924
1768828275.9065886,-0.683415412902832,0.47109317779541016,9.73335361480713,-1.4650719152939473,0.9845531529442724,20.31407837103393,-1.5369690345273361,1.0332640910301598,21.329151018226632
1768828275.9075534,-0.7025041580200195,0.47569847106933594,9.728246688842773,-1.4657497474986485,0.9850121448801019,20.32346496159812,-1.538383307128494,1.0342145095382913,21.348760722887903
1768828275.9223125,-0.6978282928466797,0.4853677749633789,9.732954978942873,-1.4760490397388821,0.9921757187987623,20.467114264323072,-1.560168408960883,1.0488580941941767,21.65083616649396
1768828275.9232607,-0.7071418762207031,0.4707345962524414,9.718676567077638,-1.476719545081778,0.99262206495996,20.476329422954223,-1.561568620683922,1.049799289193954,21.67025163139948
1768828275.9241495,-0.6929340362548828,0.4614753723144531,9.733372688293459,-1.477335441804371,0.9930322355598946,20.48498068270601,-1.5628817125644932,1.0506819205373585,21.688459183352112
1768828275.925028,-0.6977834701538086,0.4758005142211914,9.733097076416016,-1.477948495147075,0.9934502607900413,20.493531913786683,-1.5641801974155238,1.0515547385808317,21.70646423618145
1768828275.9360094,-0.6928730010986328,0.4613981246948242,9.728583335876467,-1.4855571562163732,0.9985170218606072,20.6003646135307,-1.5804935779092053,1.0625197748561894,21.932683459617476
1768828275.9369442,-0.7122344970703125,0.4853696823120117,9.737561225891115,-1.4862229809784822,0.9989707644897408,20.609467667950867,-1.5818829574840803,1.0634536519350954,21.951949998887407
1768828275.9521892,-0.6927967071533203,0.4708099365234375,9.718861579895021,-1.4967846396109508,1.0061482435091875,20.757631331610355,-1.604701380618408,1.0787923424512011,22.26839927452547
1768828275.9531956,-0.7024364471435547,0.4613485336303711,9.728460311889648,-1.497491546941319,1.0066125284442933,20.767421711844236,-1.6062084034330728,1.0798053618896022,22.28929887718796
1768828275.9540672,-0.6930770874023438,0.4664144515991211,9.742881774902344,-1.4980956733545554,1.007019082484021,20.775914175854723,-1.6075142309986914,1.08068313845648,22.307408375742888
1768828275.9653559,-0.707301139831543,0.4661836624145508,9.733117103576662,-1.5060801433330653,1.0122816633670482,20.885787858978347,-1.6245158318904087,1.0921104246515443,22.543180576219275
1768828275.966298,-0.6975555419921875,0.4660015106201172,9.718871116638185,-1.506737401248074,1.012720744075068,20.894945273093526,-1.625935525410414,1.0930646407457008,22.56286842519714
1768828275.9671714,-0.6833171844482422,0.4757213592529297,9.7237024307251,-1.5073341607692328,1.0131362045040078,20.90343724744821,-1.6272519214157817,1.0939494402063736,22.581123966673726
1768828275.9814072,-0.7025423049926758,0.4709930419921875,9.733107566833498,-1.5173353668069467,1.0198411366081928,21.041995186908025,-1.6488523055120885,1.108467628307603,22.880672232754364
1768828275.9823778,-0.7075824737548828,0.4617881774902344,9.757137298583984,-1.5180221477962732,1.020289349153245,21.051465484230903,-1.6503257008987078,1.109457923226713,22.90110482800409
1768828275.9832754,-0.6880531311035156,0.46613025665283203,9.723783493041992,-1.5186397759030115,1.0207077690904498,21.060193999105195,-1.651688901743538,1.1103741574220944,22.920009425860286
1768828275.9926848,-0.6928806304931641,0.47567081451416016,9.723579406738281,-1.52515938606075,1.0251835592014231,21.151687315962135,-1.666039778630448,1.1200205479430112,23.119034697183434
1768828275.993655,-0.7024669647216797,0.4804048538208008,9.723384857177734,-1.525840866964245,1.0256496120555312,21.161120216625477,-1.667520035304184,1.1210155564763589,23.139563633131196
1768828275.9945464,-0.6976995468139648,0.47094058990478516,9.728379249572756,-1.5264628291790814,1.0260694306632558,21.16979255177671,-1.6688807961165382,1.1219302430611295,23.158435382615995
1768828276.0100574,-0.6929855346679688,0.48531532287597656,9.728227615356445,-1.537211752698795,1.0335971740685181,21.320687439748554,-1.6927245428280493,1.137962405954079,23.489141331315746
1768828276.0110104,-0.7119541168212891,0.45173168182373047,9.728480339050295,-1.5378902158252004,1.0340276558677033,21.32995828323419,-1.694190089243534,1.1389477919777202,23.509467908325444
1768828276.0119224,-0.6879167556762695,0.4754638671875,9.70927143096924,-1.5385175622432143,1.0344612556477841,21.338812663656654,-1.6955931419730406,1.139891170021575,23.528927861261256
1768828276.0224128,-0.7024669647216797,0.4804048538208008,9.723384857177734,-1.5458867339693825,1.039500903124008,21.440815030131716,-1.7118101391898977,1.1507959684666702,23.753850962048848
1768828276.0235107,-0.7215404510498047,0.4564647674560547,9.728285789489748,-1.5466789258985045,1.0400020638062415,21.451495885897202,-1.7135082651373166,1.1519378049915925,23.777402936000797
1768828276.0243988,-0.7021942138671875,0.46103858947753906,9.709300994873047,-1.5473025510450498,1.0404115164224095,21.460118805505772,-1.7148824387791515,1.1528618040385556,23.79646186509857
1768828276.0394428,-0.7119846343994141,0.47078800201416016,9.72340488433838,-1.5580136293183386,1.0474940388478444,21.6063974550259,-1.7383211551898736,1.1686202770431973,24.12150794497611
1768828276.040433,-0.7024812698364258,0.4709157943725586,9.728318214416506,-1.5587091928048267,1.047960317232537,21.61602997225509,-1.739864514774138,1.1696579174234527,24.142911108045542
1768828276.041329,-0.6929559707641602,0.4662590026855469,9.733302116394045,-1.5593300654306859,1.0483780745844342,21.624750787282665,-1.7412616386797701,1.1705972400868285,24.162286387819876
1768828276.053128,-0.6976995468139648,0.47094058990478516,9.728379249572756,-1.5675622901030692,1.0539347483147594,21.73953687829612,-1.759757458290106,1.1830327184783207,24.4187932935115
1768828276.0543282,-0.7119007110595703,0.4659261703491211,9.718687057495117,-1.568416712715134,1.0544939524977508,21.75120123802003,-1.7616398706597884,1.1842983211997433,24.444899066252862
1768828276.0555859,-0.7170085906982422,0.4710731506347656,9.742502212524414,-1.569318464308708,1.0550864014164745,21.76345397391401,-1.763613536588445,1.185625259058199,24.472270048354396
1768828276.0643764,-0.6834001541137695,0.48058223724365234,9.728421211242678,-1.5753258885874857,1.0593109562144036,21.84897159258412,-1.7774614278028684,1.1949371246157803,24.664333280446915
1768828276.0653563,-0.7025880813598633,0.4805593490600586,9.732964515686037,-1.5760143549014174,1.0597818564936006,21.858508928017955,-1.7790057648367708,1.1959756052385937,24.68575244121689
1768828276.0823605,-0.6927824020385742,0.44226551055908203,9.72886848449707,-1.5877946010866708,1.0673022504561231,22.023941054345187,-1.8060050235323977,1.214124281110629,25.06025307348793
1768828276.0833452,-0.6977987289428711,0.4663114547729492,9.738030433654787,-1.5884817016760735,1.0677614127648667,22.033529788421447,-1.8075691517948989,1.2151756723866831,25.08194880131934
1768828276.084252,-0.7070369720458984,0.461090087890625,9.714028358459474,-1.5891229448100148,1.0681795957802933,22.04233987082739,-1.8090103977518102,1.2161444517556435,25.101939975270636
1768828276.085182,-0.7073087692260742,0.4804563522338867,9.728113174438477,-1.5897806234618201,1.068626339691491,22.051385386216907,-1.810488627377393,1.2171380952122925,25.122444069157545
1768828276.094504,-0.7118186950683594,0.46106529235839844,9.713967323303224,-1.5964163158143947,1.072924467087887,22.14194060642535,-1.8253706859855299,1.2271400756751145,25.32885492485881
1768828276.09551,-0.692713737487793,0.46594905853271484,9.714142799377443,-1.597113108240137,1.073393159647594,22.151711945954048,-1.8269772028721611,1.2282197889578315,25.35113706575751
1768828276.109238,-0.7025270462036133,0.4804821014404297,9.728175163269045,-1.6067573316424841,1.0799891715053036,22.28525939452379,-1.849034612253704,1.2430457759406786,25.657066953213757
1768828276.110206,-0.6975183486938477,0.47070789337158203,9.714009284973146,-1.6074325150568711,1.0804448070641683,22.29466235570567,-1.8505905738652446,1.244091624290412,25.678647727798566
1768828276.1111085,-0.7023601531982422,0.4707603454589844,9.718738555908203,-1.6080665023739584,1.0808697401801055,22.303435001697153,-1.8520420995004843,1.245067274323486,25.698779984524933
1768828276.123985,-0.7023000717163086,0.47068309783935547,9.713948249816896,-1.6171096767059225,1.0869304960881436,22.42851675949919,-1.8728648294264822,1.2590631463996942,25.9875810187721
1768828276.124998,-0.7072257995605469,0.47559547424316406,9.723394393920898,-1.6178261251136519,1.0874122935854302,22.438366952231945,-1.874503752882104,1.2601647391396207,26.010311994204503
1768828276.1259408,-0.6976995468139648,0.47094058990478516,9.728379249572756,-1.6184838514034254,1.0878562526052065,22.44753796405007,-1.8760295090381789,1.2611902689111396,26.031473446762508
1768828276.138755,-0.7023830413818359,0.4755430221557617,9.718667030334474,-1.6274843867306572,1.0939499956461987,22.572075717364896,-1.8968845551515776,1.2752084541490232,26.32071842127585
1768828276.1397462,-0.6978216171264648,0.47109508514404297,9.737958908081055,-1.628176001945576,1.0944169008273548,22.58172706719097,-1.898498250210421,1.2762931373424062,26.343099307215045
1768828276.1406994,-0.7025489807128906,0.48526573181152344,9.72810459136963,-1.6288456698630398,1.094879454899683,22.590999871965323,-1.9000508617970187,1.2773367736788972,26.364632991346696
1768828276.153313,-0.702519416809082,0.46620941162109375,9.733179092407227,-1.6377069230641155,1.1007600035966334,22.71376966640173,-1.9207081352718804,1.2912212484309133,26.65113391836605
1768828276.1543252,-0.6879615783691406,0.4850311279296875,9.709129333496094,-1.6384033639662903,1.1012510128723534,22.723598463539474,-1.9223667324273086,1.29233607267843,26.674137591699264
1768828276.1552706,-0.7169170379638672,0.4899730682373047,9.727848052978516,-1.639081086910437,1.1017141989493666,22.732794486891635,-1.9239162044039702,1.2933775557943021,26.695627576721932
1768828276.1680112,-0.7025651931762695,0.47577571868896484,9.733036041259766,-1.6480321974624985,1.107775872794491,22.856799322967618,-1.9449131432448366,1.3074912984058038,26.9868371891441
1768828276.168979,-0.6977453231811523,0.48050689697265625,9.728236198425295,-1.648707434228072,1.1082408790255158,22.866213736116833,-1.9465086650466734,1.308563788556247,27.008965761978807
1768828276.169912,-0.6978063583374023,0.48058414459228516,9.733025550842287,-1.6493586064098054,1.1086893458848408,22.87529630667109,-1.9480477975429082,1.3095983845463788,27.030312309521452
1768828276.1835155,-0.6928644180297852,0.48515987396240234,9.718647956848146,-1.65878395209279,1.1152891934229956,23.0075034372162,-1.9706129802179262,1.324770164061916,27.343293706105307
1768828276.1845047,-0.6929855346679688,0.48531532287597656,9.728227615356445,-1.6594694524721945,1.1157692667020456,23.0171265871777,-1.972254525217599,1.3258738815529578,27.36606221745074
1768828276.1854272,-0.7119235992431641,0.47070980072021484,9.718615531921388,-1.6601261603325383,1.11620346894847,23.02609144129724,-1.973785894454146,1.3269035139356753,27.38730243937704
1768828276.1970937,-0.6928577423095703,0.4708881378173828,9.723650932312013,-1.66820941035553,1.1216971025162366,23.13953276817074,-1.9932481201480696,1.3399898339347567,27.65726063910336
1768828276.198049,-0.6929254531860352,0.48523807525634766,9.723437309265138,-1.6688713920075315,1.122160671434358,23.148821988336522,-1.9948424651616343,1.3410618825536544,27.67937570985342
1768828276.1989417,-0.7122726440429688,0.4806642532348633,9.742421150207521,-1.6695071944623123,1.1225897311696826,23.15751845496993,-1.996332732661574,1.3420639501084857,27.70004701767837
1768828276.212984,-0.7074451446533203,0.47112274169921875,9.742625236511232,-1.679441406224214,1.1292054145442307,23.294328076108513,-2.019916082829753,1.357920678782856,28.027154765477917
1768828276.213921,-0.6978445053100586,0.4758777618408203,9.737887382507326,-1.6800952760690961,1.129651304876461,23.303452330672144,-2.0214903069286625,1.3589791451286821,28.048989751129778
1768828276.2147868,-0.7023458480834961,0.48024940490722656,9.713805198669435,-1.680703295367266,1.1300670557589,23.31186155105206,-2.022945288175963,1.3599574417613203,28.069170779803873
1768828276.2231066,-0.726496696472168,0.48043346405029297,9.732656478881836,-1.6867476423483367,1.1340641923902695,23.39283583915494,-2.0369787835371453,1.3693926911036787,28.263795775856412
1768828276.2241297,-0.7072257995605469,0.47559547424316406,9.723394393920898,-1.687471172618416,1.1345507523010383,23.402783397878466,-2.0387051578776094,1.3705533979284876,28.287738089899527
1768828276.2250435,-0.7073402404785156,0.46147727966308594,9.737977981567383,-1.6881175814485232,1.134972477195788,23.41168253098931,-2.040247858332725,1.3715906020760866,28.309133052959258
1768828276.241965,-0.7023763656616211,0.4612712860107422,9.723670005798342,-1.7000028573313557,1.142777888594992,23.576221809732942,-2.0690144910794777,1.3909281412399481,28.708078567333988
1768828276.2429454,-0.707097053527832,0.4611673355102539,9.718818664550781,-1.700696079158888,1.14323000653485,23.585749917936027,-2.070681814734964,1.3920489378695846,28.73120149873394
1768828276.2438054,-0.6978216171264648,0.47109508514404297,9.737958908081055,-1.701296188872675,1.143635136914554,23.59412432708268,-2.0721448883112386,1.3930324364283087,28.751491875027074
1768828276.252857,-0.7025651931762695,0.47577571868896484,9.733036041259766,-1.7076555008250125,1.1479416500237676,23.68222349998632,-2.087601836851168,1.4034231007061369,28.965852974074014
1768828276.2538524,-0.7119913101196289,0.4850597381591797,9.718401908874513,-1.708364215243364,1.1484244773073442,23.691897173608822,-2.089302338435851,1.404566239637592,28.989435830895985
1768828276.2547412,-0.6976242065429688,0.48035144805908203,9.718656539916992,-1.708984280704044,1.148851425425164,23.700535353287933,-2.0908213254712362,1.4055873668887366,29.010501446501593
1768828276.2665591,-0.6978673934936523,0.48066139221191406,9.737815856933594,-1.7172316301953288,1.15453184913531,23.81561620016896,-2.1111154523264957,1.4192315459224785,29.29195278236327
1768828276.2674973,-0.6976165771484375,0.4660797119140625,9.723660469055178,-1.7178861180987042,1.1549691144518874,23.824738715834428,-2.1127271337579603,1.4203151115069874,29.314304606848765
1768828276.2824132,-0.7169857025146484,0.4662895202636719,9.742573738098146,-1.7285806360737297,1.1619242624256003,23.970058391805196,-2.1385105442484837,1.4376463077449975,29.671840635021287
1768828276.2835073,-0.7119541168212891,0.45173168182373047,9.728480339050295,-1.7293595871087746,1.162418503350409,23.980702349962712,-2.1404026415178383,1.4389181131534454,29.698077990035127
1768828276.2844925,-0.7025423049926758,0.4709930419921875,9.733107566833498,-1.7300516935474661,1.1628825000586858,23.990290877753296,-2.142106994277614,1.4400637216954688,29.721711918788714
1768828276.28549,-0.7025880813598633,0.4805593490600586,9.732964515686037,-1.7307525556052497,1.1633618788343938,23.99999993163533,-2.143833494953925,1.4412242255838477,29.745652958759578
1768828276.2962098,-0.7118635177612305,0.47063255310058594,9.713825225830078,-1.738383573167539,1.1684069544542126,24.104129963651076,-2.1624685777273145,1.4537492865918649,30.004043836346344
1768828276.2971451,-0.707270622253418,0.48516273498535156,9.723252296447756,-1.7390450947575573,1.1688607349644826,24.113224277930385,-2.1640951345783996,1.4548425408393553,30.026597322894368
1768828276.312276,-0.6975030899047852,0.4801969528198242,9.709076881408693,-1.7495988454143117,1.1761264789870438,24.260129973398534,-2.1905678918049927,1.4726382263061109,30.39367148549722
1768828276.3133023,-0.7025356292724609,0.45672035217285156,9.73811149597168,-1.7503199223519914,1.1765952530950017,24.270125092967874,-2.1923644061410363,1.4738458742411613,30.41858214731983
1768828276.314175,-0.7073469161987305,0.4757499694824219,9.732974052429201,-1.750937161758884,1.1770103982271394,24.27861820291696,-2.1938922949187782,1.4748729476382043,30.43976796089526
1768828276.3150487,-0.7071647644042969,0.47551727294921875,9.718605041503906,-1.7515550852240267,1.1774259071662527,24.287110359774715,-2.1954228109203235,1.4759017872143925,30.460990137320376
1768828276.3255649,-0.7167434692382812,0.46597957611083984,9.723414421081545,-1.7590924790183635,1.1823262260613774,24.389363406593702,-2.213921720647549,1.4883353268860795,30.71747274829422
1768828276.326497,-0.7024812698364258,0.4709157943725586,9.728318214416506,-1.759747343750405,1.1827652216029492,24.398432306754103,-2.2155621864111334,1.4894379203119417,30.74021737298509
1768828276.3413312,-0.7023000717163086,0.47068309783935547,9.713948249816896,-1.7701653792962588,1.1897474126087673,24.542530623460607,-2.241821112739419,1.5070868304207714,31.104285335836874
1768828276.342265,-0.7024745941162109,0.45664310455322266,9.733321189880373,-1.7708212427030503,1.1901737561445316,24.551618111105654,-2.243474434956031,1.508198032763058,31.127207884255654
1768828276.3431551,-0.7026185989379883,0.4615812301635742,9.742829322814943,-1.7714467524058364,1.1905846811307583,24.56029171337468,-2.2450514742391836,1.5092579566978377,31.149072806125346
1768828276.3547661,-0.7118406295776367,0.4658489227294922,9.71389675140381,-1.7797119231374836,1.1959936458927132,24.67307962092582,-2.265715682331109,1.5231446207438808,31.435551558628525
1768828276.3556933,-0.7121591567993164,0.45674800872802734,9.742777824401857,-1.780372244125374,1.1964171471472582,24.682113220531164,-2.2673664610198747,1.5242539505123611,31.458437057227254
1768828276.356563,-0.6976318359375,0.4565906524658203,9.72859287261963,-1.7809790100959617,1.1968142673131297,24.690574673682704,-2.268915469253143,1.5252948808901206,31.47991170866158
1768828276.3699653,-0.7022771835327148,0.4658994674682617,9.714019775390625,-1.7903910859297412,1.2030583561452204,24.82076413864138,-2.2929106908950097,1.541418537967431,31.81256513924874
1768828276.3709302,-0.7120447158813477,0.47086524963378906,9.728195190429688,-1.7910781236278126,1.2035126846024014,24.830150679515782,-2.2946388663363515,1.5425797832740626,31.836523254778754
1768828276.3718028,-0.7022771835327148,0.4658994674682617,9.714019775390625,-1.7916909391251465,1.2039192340682803,24.838627249735282,-2.2962023173492487,1.5436303376441536,31.858197738968272
1768828276.3821042,-0.7025423049926758,0.4709930419921875,9.733107566833498,-1.7989280743856852,1.2087710989701463,24.938891412428347,-2.314733707851697,1.55608231367479,32.11510202660617
1768828276.3830888,-0.7121286392211914,0.4757251739501953,9.732913017272951,-1.799629285189667,1.2092395306738126,24.94847510754471,-2.316505746537456,1.5572730140297675,32.139668009947904
1768828276.3839831,-0.7217073440551758,0.4661855697631836,9.737723350524904,-1.8002747139062194,1.209656444200391,24.95718363231731,-2.318115746778703,1.5583548195741905,32.16198742117914
1768828276.4002876,-0.6977605819702148,0.47101783752441406,9.733168601989748,-1.8116513463960473,1.217336151211839,25.11587801117389,-2.3476538033846714,1.5782028682699392,32.57148907715642
1768828276.4012175,-0.7022161483764648,0.4658222198486328,9.709230422973633,-1.8123042897636878,1.217769287831743,25.12490596876819,-2.3493389427379654,1.5793351896807248,32.59485103024284
1768828276.4021153,-0.6975946426391602,0.46129608154296875,9.723731040954592,-1.8129306490891395,1.2181834783727936,25.133636754877216,-2.350966744829676,1.5804289775844038,32.61741812981857
1768828276.4127173,-0.6879777908325195,0.4755411148071289,9.714060783386232,-1.82022458782194,1.2232251640239156,25.23662520180801,-2.3702647611325633,1.5933976075630165,32.884976763974315
1768828276.4136682,-0.7069530487060547,0.45623016357421875,9.709310531616211,-1.8208967681784998,1.223658953728318,25.245856943331773,-2.3719960939857603,1.5945610787628792,32.90898086036075
1768828276.4145575,-0.6882953643798828,0.46644020080566406,9.742942810058594,-1.8215088701408604,1.2240737596052895,25.25452135503906,-2.373615964192027,1.5956496491486518,32.9314397390339
1768828276.4251504,-0.7170991897583008,0.4902057647705078,9.74221706390381,-1.8291050570173866,1.2292664786186833,25.357720051211118,-2.392991559686126,1.6086711920899903,33.20005248190502
1768828276.4260995,-0.6736860275268555,0.4614219665527344,9.724039077758789,-1.8297444823131173,1.2297044346773873,25.366949568091286,-2.394728251347982,1.6098383591228165,33.22412937910431
1768828276.4424741,-0.7120676040649414,0.4756479263305664,9.728123664855959,-1.8414042959668677,1.2374929735101432,25.526243585239854,-2.4248804880592467,1.6301017967326503,33.64211110132432
1768828276.4436429,-0.702580451965332,0.46628665924072266,9.737969398498537,-1.8422254213253382,1.2380379357264246,25.5376246215194,-2.4270335482607335,1.631548726178139,33.67195763507454
1768828276.4446187,-0.6929340362548828,0.4614753723144531,9.733372688293459,-1.8429016190950733,1.2384882651967928,25.54712290643465,-2.428831938727175,1.6327573015387828,33.69688772456163
1768828276.4455774,-0.6880760192871094,0.4709138870239258,9.723711967468263,-1.843561264574646,1.2389397214431028,25.556444845383567,-2.430599326080322,1.6339450496419061,33.72138820538593
1768828276.454751,-0.6930017471313477,0.47582530975341797,9.733159065246584,-1.8499186073481724,1.243304767573136,25.645733261615078,-2.4475697980000817,1.6453506696308033,33.95665271618609
1768828276.4556687,-0.7120447158813477,0.47086524963378906,9.728195190429688,-1.8505720316377392,1.2437368679516112,25.654660564759524,-2.449268018193414,1.6464920135116345,33.980195308357224
1768828276.473114,-0.7070207595825195,0.4705801010131836,9.709096908569336,-1.8629062391723892,1.25194629115299,25.82403892405273,-2.481767024566458,1.6683326245093009,34.4307040821876
1768828276.4741476,-0.6975183486938477,0.47070789337158203,9.714009284973146,-1.8636271554535142,1.2524327887263098,25.83407878531466,-2.4836931662383277,1.6696270695803135,34.45740475327256
1768828276.4753225,-0.6785888671875,0.4615507125854492,9.733556747436523,-1.8644244476711265,1.2529750770086139,25.84551500158591,-2.4858837284098163,1.6710992235251632,34.48777134041737
1768828276.4763696,-0.7071189880371094,0.46595096588134766,9.718748092651367,-1.865164896287979,1.2534629902934284,25.855691837032964,-2.487836806733299,1.6724117677406918,34.514845724760576
1768828276.4842877,-0.6880083084106445,0.45656394958496094,9.723925590515138,-1.8706126282431796,1.2570781181739221,25.932687041192366,-2.5026485409320087,1.682365462413914,34.720183837907605
1768828276.485293,-0.6975336074829102,0.46121788024902344,9.7189416885376,-1.8713137700033258,1.2575417218095026,25.94245625633721,-2.5045295345019394,1.6836295090588755,34.74626048747252
1768828276.4987366,-0.6928424835205078,0.4803762435913086,9.71871852874756,-1.8806281423326254,1.263999759960143,26.073111874451797,-2.529812150893529,1.7006223532744766,35.09677980110947
1768828276.4996586,-0.7121515274047852,0.48050880432128906,9.732841491699219,-1.88128472086305,1.2644427720895237,26.082085210206287,-2.531546628894069,1.7017881248064568,35.12082656155122
1768828276.5005298,-0.6834449768066406,0.49014854431152344,9.728279113769531,-1.881880125474936,1.2648697804277163,26.09056030688066,-2.5331860880220876,1.702890055943943,35.143556174703086
1768828276.5134664,-0.7120447158813477,0.47086524963378906,9.728195190429688,-1.8910915575227136,1.270961172097259,26.216409999948382,-2.5576503681293907,1.7193319622049097,35.48270717725254
1768828276.514539,-0.6976852416992188,0.48042964935302734,9.723445892333984,-1.891839926239527,1.271476502648511,26.226839807389524,-2.5596796411215608,1.7206958053563397,35.51083927075207
1768828276.5154347,-0.707066535949707,0.4801464080810547,9.708953857421875,-1.8924732730297364,1.2719065883206895,26.23553649214159,-2.56137480248487,1.7218351011852355,35.53433945352399
1768828276.528168,-0.707240104675293,0.4661064147949219,9.72832775115967,-1.9014787176208756,1.2778416243349966,26.35940943988362,-2.58558675132596,1.738106141059994,35.869979640776954
1768828276.529092,-0.7120218276977539,0.4660816192626953,9.72826671600342,-1.902136704405848,1.2782723352124776,26.368399432452406,-2.5873445356606855,1.7392874058350993,35.89434695325602
1768828276.5299633,-0.7120447158813477,0.47086524963378906,9.728195190429688,-1.9027570245809784,1.2786825443013186,26.37687445601432,-2.589002182356733,1.740401370396771,35.917325997994375
1768828276.5438387,-0.7120676040649414,0.4756479263305664,9.728123664855959,-1.912637307560317,1.2852823897146664,26.511856884814733,-2.6155409516079353,1.7582352862303905,36.28519085637909
1768828276.544834,-0.6976995468139648,0.47094058990478516,9.728379249572756,-1.9133316296477005,1.2857510505514256,26.52153817043154,-2.6174450210845754,1.7595148131519016,36.311584007739455
1768828276.546022,-0.6979274749755859,0.4807395935058594,9.742605209350586,-1.9141607952512913,1.2863221883121696,26.533112772977802,-2.6197191202540053,1.7610430150810796,36.34310640119204
1768828276.557404,-0.7022619247436523,0.4753885269165039,9.709087371826172,-1.9221540127880417,1.291733109474535,26.643622605152814,-2.641597275144662,1.7757456543381087,36.64636685707936
1768828276.5583231,-0.7120447158813477,0.47086524963378906,9.728195190429688,-1.922808455665745,1.292165883431153,26.652563824592107,-2.643364535361516,1.7769332886823592,36.67086332503776
1768828276.5592005,-0.7121286392211914,0.4757251739501953,9.732913017272951,-1.9234332633554914,1.292583275360812,26.661103291427025,-2.645052117951893,1.778067375876165,36.69425525373736
1768828276.5723982,-0.7023830413818359,0.4755430221557617,9.718667030334474,-1.932703076238795,1.2988593306947678,26.789366958882738,-2.670559276895355,1.7952092802900101,37.04781222242846
1768828276.5733552,-0.6880826950073242,0.4851856231689453,9.718708992004396,-1.9333615797563652,1.2993236592440098,26.79866788172808,-2.6724095274687856,1.796452748853139,37.07345887390562
1768828276.574229,-0.7119464874267578,0.4754924774169922,9.718544006347656,-1.9339836815106537,1.2997391465166857,26.807159985253065,-2.6740994503243383,1.7975884662384272,37.09688308000655
1768828276.5830169,-0.7024669647216797,0.4804048538208008,9.723384857177734,-1.9401568701618999,1.3039608821150068,26.892607831296345,-2.6911492974687743,1.8090475054863875,37.33321183253707
1768828276.5839918,-0.7072629928588867,0.4708900451660156,9.728256225585938,-1.940846376305899,1.304419949792191,26.90209184573746,-2.6930414161212886,1.8103191761079496,37.35943850889558
1768828276.5848453,-0.7025489807128906,0.48526573181152344,9.72810459136963,-1.9414460289183353,1.3048341427834202,26.91039515766647,-2.6946985150782377,1.811432902302132,37.38240756756764
1768828276.6025732,-0.7071495056152344,0.48500728607177734,9.713672637939453,-1.9539822706021823,1.3134322801056442,27.082597707282957,-2.729338423323538,1.8347172352020686,37.86252384791421
1768828276.6037285,-0.7071647644042969,0.47551727294921875,9.718605041503906,-1.9547993121061609,1.3139816815569247,27.093826354522434,-2.7315969523825823,1.8362353786720758,37.89382741639995
1768828276.6047056,-0.7119846343994141,0.47078800201416016,9.72340488433838,-1.9554949491014213,1.3144416599543547,27.10332650358555,-2.7335075478714685,1.8375196398802507,37.9203084325618
1768828276.6134803,-0.7072858810424805,0.47567272186279297,9.728184700012209,-1.9617012111095846,1.318615572683484,27.188688964127095,-2.750721000061314,1.849090171614966,38.15888258184514
1768828276.6144176,-0.6977672576904297,0.48529052734375,9.72816562652588,-1.9623551749352828,1.3190703983382264,27.19780642892647,-2.7525601653179743,1.8503264353039754,38.18437300339592
1768828276.6152818,-0.702458381652832,0.46613216400146484,9.728389739990234,-1.9629622867787475,1.319473261148005,27.206214358539455,-2.7542566895302327,1.851466812961785,38.20788644616252
1768828276.6316154,-0.7023601531982422,0.4707603454589844,9.718738555908203,-1.9744343425418265,1.327162462919432,27.364956152407558,-2.78650627085263,1.8731441272455576,38.654854147142025
1768828276.6325493,-0.707209587097168,0.48508453369140625,9.718462944030763,-1.975094795373252,1.3276154763677823,27.374032084755754,-2.7883507833899843,1.874383968187209,38.68041836081752
1768828276.6334114,-0.7026033401489258,0.4710702896118164,9.737897872924805,-1.9757005248764017,1.3280215962311104,27.38242733667562,-2.7900540774521105,1.8755288842667235,38.70402534239287
1768828276.6429288,-0.7024059295654297,0.48032665252685547,9.718595504760742,-1.9823856250270637,1.3325930721284749,27.474923401327715,-2.8089212963674433,1.8882117472271327,38.96551603721556
1768828276.6439497,-0.7073698043823242,0.4805335998535156,9.732902526855469,-1.9831077847709366,1.3330836528957661,27.48485980284272,-2.810945867675195,1.8895727034672383,38.993575560243876
1768828276.644858,-0.7121057510375977,0.47094249725341797,9.73298454284668,-1.9837544739011719,1.3335113329046635,27.493698680073294,-2.812747387257726,1.8907837136055197,39.018543587900524
1768828276.656821,-0.7026262283325195,0.47585296630859375,9.737826347351076,-1.992160082140117,1.339204023346383,27.61019355327062,-2.8365798553958355,1.9068047841524927,39.3488478962965
1768828276.657813,-0.7071189880371094,0.46595096588134766,9.718748092651367,-1.992861586396657,1.3396662745253707,27.619835131662057,-2.8385568930786063,1.9081338130851355,39.37624842186232
1768828276.6733916,-0.7072629928588867,0.4708900451660156,9.728256225585938,-2.0038796888557044,1.3470020390386708,27.771386852766682,-2.869774349598096,1.9291180956342369,39.80888520459114
1768828276.6745374,-0.7023372650146484,0.4659767150878906,9.718810081481935,-2.0046844547705405,1.3475359736539758,27.78252305110891,-2.8720713966146274,1.9306621558381183,39.84071952222373
1768828276.6758296,-0.7072629928588867,0.4708900451660156,9.728256225585938,-2.0055984003074627,1.3481444712842858,27.795094182992216,-2.8746630884256326,1.9324042668139467,39.87663714061091
1768828276.6767163,-0.6977987289428711,0.4663114547729492,9.738030433654787,-2.006217123574288,1.348557939716784,27.80372868711561,-2.876441958408012,1.933600004408982,39.90129011449821
1768828276.6860104,-0.7023763656616211,0.4612712860107422,9.723670005798342,-2.0127450327306633,1.3528450102942315,27.894100797522015,-2.895148477264515,1.9461733906469108,40.16053880922539
1768828276.6869228,-0.7027091979980469,0.4807147979736328,9.742544174194336,-2.0133862042100645,1.3532836278889135,27.902990166665177,-2.896985547015184,1.9474081643886163,40.185998276008874
1768828276.7006416,-0.6929636001586914,0.4805316925048828,9.72829818725586,-2.022892863364177,1.3598759669559968,28.03645116662915,-2.9247372975441963,1.9660640899044146,40.570625960740124
1768828276.701578,-0.707301139831543,0.4661836624145508,9.733117103576662,-2.0235550880327082,1.360312440621783,28.04556398984505,-2.9266318909810822,1.9673377093069,40.596884174209656
1768828276.702467,-0.6977376937866211,0.4662342071533203,9.733240127563477,-2.024175420717256,1.3607269521494345,28.0542174523589,-2.9284315102132252,1.9685474811318715,40.62182613761523
1768828276.7155533,-0.697662353515625,0.4756460189819336,9.723517417907717,-2.033305252808532,1.3669514076705127,28.18146250279733,-2.9550399913142984,1.9864358432687645,40.990617744960225
1768828276.7165253,-0.70220947265625,0.4515495300292969,9.7142333984375,-2.0339878232707633,1.3673903285102824,28.190905053829738,-2.9570170936787132,1.9877649911725255,41.018020222201855
1768828276.717392,-0.6928853988647461,0.4661712646484375,9.728504180908203,-2.0345883134652922,1.3677943365523788,28.19933627691171,-2.9587803727637407,1.9889503922339096,41.04245922027319
1768828276.7300541,-0.6929464340209961,0.4662485122680664,9.733294486999513,-2.0433625206196666,1.3736980555574974,28.322580928923117,-2.984653781106958,2.0063443937256,41.40108462047169
1768828276.730995,-0.6977062225341797,0.4614400863647461,9.733304023742678,-2.044018922433679,1.3741321782583782,28.331738018556507,-2.9865767935228256,2.0076371768847148,41.42773911147216
1768828276.7318654,-0.6929922103881836,0.4758148193359375,9.733151435852053,-2.044622148752069,1.374546358991438,28.340210398215277,-2.9883565680611266,2.0088336730749474,41.45240830764008
1768828276.7434971,-0.6929988861083984,0.49008750915527344,9.728147506713867,-2.0526829227580947,1.380246923211189,28.453365556355948,-3.0122328158849845,2.0248883287800905,41.783370094243516
1768828276.7444577,-0.7069664001464844,0.4610013961791992,9.709231376647951,-2.05336202652029,1.3806897558301898,28.462692131925223,-3.0142052517420064,2.026214603419754,41.81071102770936
1768828276.7453644,-0.702366828918457,0.4612598419189453,9.723663330078125,-2.0539988666373574,1.3811079828301445,28.47150863441152,-3.016067624543268,2.027466862116001,41.83652631132654
1768828276.7594652,-0.6976451873779297,0.4613628387451172,9.728513717651367,-2.063836214935691,1.3876135633440754,28.608688363587817,-3.0451693456535978,2.0470333096068978,42.23993141879792
1768828276.7603984,-0.7023277282714844,0.46596622467041016,9.718801498413086,-2.064491606325646,1.3880483891944095,28.617757660678535,-3.047095867943627,2.0483285951644796,42.26663666083186
1768828276.7628508,-0.702509880065918,0.4661989212036133,9.733171463012695,-2.0662144229422665,1.3891916830766604,28.641627032490533,-3.052162997449353,2.0517354120409212,42.33687662809608
1768828276.7730544,-0.7075643539428711,0.48553943634033203,9.747194290161133,-2.0734341265344938,1.3941459332352224,28.74108350346546,-3.073319489757325,2.0659607193874243,42.630139145714686
1768828276.7739892,-0.7024269104003906,0.4613380432128906,9.728452682495117,-2.074090782779649,1.3945772101449165,28.750178042861762,-3.0752584312263456,2.0672644248987506,42.657015940555034
1768828276.7748375,-0.7025556564331055,0.4757652282714844,9.733028411865234,-2.074686756039,1.3949807986025462,28.758434505695504,-3.077018374110311,2.0684477777700323,42.68141152799249
1768828276.7888534,-0.7119903564453125,0.4612874984741211,9.728329658508303,-2.0846659509386427,1.4014461640535956,28.894785927918292,-3.106236870732833,2.088090325293106,43.086398333990466
1768828276.7901614,-0.7071933746337891,0.47080135345458984,9.7234582901001,-2.0855909346435055,1.402061955428053,28.907503864476894,-3.108964749271788,2.0899241723121773,43.12420831776859
1768828276.7914934,-0.7121343612670898,0.46622562408447266,9.737837791442873,-2.0865395293749316,1.4026829887536678,28.920475098736688,-3.111744112987584,2.091792608614879,43.16273168049496
1768828276.8023434,-0.7120351791381836,0.4708547592163086,9.728186607360842,-2.0942650773877176,1.407791740618677,29.026025463261476,-3.1344667900137986,2.10706708240888,43.477662683775144
1768828276.8032966,-0.6928634643554688,0.46138763427734375,9.728575706481935,-2.0949255130954043,1.4082315341486265,29.03529871710157,-3.1364636677320936,2.108409405157428,43.5053390573215
1768828276.804182,-0.6977128982543945,0.47571277618408203,9.728299140930178,-2.0955433285193976,1.4086527714387103,29.04391299565873,-3.138319243275049,2.1096567483145106,43.53105705317156
1768828276.8148289,-0.6973638534545898,0.4657583236694336,9.704493522644045,-2.1029680359893064,1.4136116165061594,29.14723499204888,-3.1607091655637385,2.1247072168419945,43.84138241962209
1768828276.8161728,-0.6881198883056641,0.4567079544067383,9.733497619628906,-2.103892845399969,1.4142254162543395,29.160316477339848,-3.1635367250276016,2.1266078870536496,43.88057287982306
1768828276.8322656,-0.7122936248779297,0.46167469024658203,9.752279281616211,-2.1153556280432895,1.421655044207455,29.317257735520116,-3.197578671958884,2.1494862650095428,44.352368978206044
1768828276.8331192,-0.7071781158447266,0.48029041290283203,9.718525886535646,-2.1159592318008436,1.4220649905723803,29.325552871655646,-3.1993847246555527,2.150700052247246,44.377399467002405
1768828276.8337624,-0.7215538024902344,0.46123695373535156,9.728206634521484,-2.1164233736844835,1.4223616827771366,29.331810572933364,-3.2007461210307797,2.1516149911310594,44.39626725172325
1768828276.8344402,-0.6881122589111328,0.48046875,9.723562240600586,-2.1168897927022954,1.4226873560369313,29.33840143698376,-3.202180999780783,2.1525793227944803,44.41615352493696
1768828276.842896,-0.7023887634277344,0.46604347229003906,9.723591804504396,-2.1228290188250867,1.4266281046780023,29.42062173072941,-3.2201311183181254,2.16464253813617,44.664927045001804
1768828276.8432703,-0.7025785446166992,0.4805488586425781,9.73295783996582,-2.123092006037041,1.4268079823664266,29.424264943955905,-3.2209258281077537,2.1651766168611064,44.67594105256111
1768828276.8581529,-0.7121944427490234,0.46630382537841797,9.74262809753418,-2.133691285799614,1.433747779145051,29.569260235452248,-3.252680626387083,2.186514460725021,45.1160074765536
1768828276.8585389,-0.7167940139770508,0.4660463333129883,9.728196144104006,-2.1339679680593235,1.4339276728803725,29.57301531604662,-3.2535043373389567,2.187067956347273,45.127422650989374
1768828276.8589149,-0.6976299285888672,0.4708518981933594,9.723581314086914,-2.134230267214889,1.4341047066488954,29.57667124745558,-3.2543067782520136,2.187607159781832,45.1385430682403
1768828276.87168,-0.7024269104003906,0.4613380432128906,9.728452682495117,-2.14319686553722,1.4399937648029209,29.700856591453885,-3.281665048748794,2.205988923755381,45.5176795263423
